timestamp_s,accel_x_mps2,accel_y_mps2,gyro_z_radps,velocity_kmh,heading_rad
0.000,-0.4357,-0.5662,-0.01926,43.223,0.00000
0.020,0.5753,-0.2883,0.01924,43.199,0.00001
0.040,0.4856,-0.0514,0.00975,43.314,0.00002
0.060,-0.8114,0.3375,-0.03592,43.333,0.00004
0.080,-0.1447,0.6319,0.02641,43.237,0.00007
0.100,1.3589,0.1390,0.02169,43.302,0.00011
0.120,2.9030,-0.4746,0.02754,43.536,0.00016
0.140,0.5966,-0.2879,0.01556,43.707,0.00021
0.160,-1.8621,0.1793,-0.02474,43.580,0.00027
0.180,-2.1286,-0.1854,0.02670,43.352,0.00034
0.200,-0.2145,-0.4230,0.02101,43.240,0.00041
0.220,-2.6842,-0.1029,0.03162,43.248,0.00049
0.240,-2.5320,0.0183,0.01514,42.829,0.00058
0.260,-1.7298,0.1930,-0.00695,42.790,0.00068
0.280,-1.5878,-0.3377,0.02498,42.566,0.00079
0.300,-1.3058,-0.0195,0.02258,42.434,0.00090
0.320,-1.2487,0.2956,0.02089,42.336,0.00102
0.340,0.2430,0.3234,0.00908,42.279,0.00115
0.360,1.1709,0.5083,0.00719,42.353,0.00128
0.380,1.6768,0.2685,-0.02613,42.541,0.00142
0.400,1.4879,0.1084,-0.00950,42.517,0.00157
0.420,1.4195,0.9236,0.01281,42.763,0.00173
0.440,0.5414,0.0502,-0.03514,42.644,0.00190
0.460,1.6227,0.7365,-0.01680,42.707,0.00207
0.480,1.3119,-0.1261,0.00999,42.870,0.00225
0.500,-0.8225,0.5453,0.03030,42.886,0.00244
0.520,-1.8826,-0.4980,0.03607,42.753,0.00263
0.540,-0.7881,0.3881,0.02314,42.587,0.00283
0.560,0.2663,-0.1646,0.02823,42.504,0.00304
0.580,-0.8406,-0.0293,0.04452,42.544,0.00326
0.600,-1.0498,-0.0043,0.06542,42.362,0.00349
0.620,-1.2342,-0.1356,0.02408,42.325,0.00372
0.640,0.5760,-0.9891,0.00714,42.296,0.00396
0.660,-0.1381,0.9056,0.02148,42.393,0.00421
0.680,1.2116,-0.0282,-0.00774,42.432,0.00446
0.700,-1.1913,-0.4280,0.01511,42.496,0.00472
0.720,-0.7110,0.6107,0.03690,42.378,0.00499
0.740,0.5059,0.8063,0.04314,42.355,0.00527
0.760,3.9194,0.1297,0.03839,42.496,0.00555
0.780,-0.1639,0.0629,0.02508,42.765,0.00585
0.800,0.2359,-0.3390,0.04478,42.538,0.00614
0.820,4.3005,0.3361,0.04920,42.811,0.00645
0.840,2.8851,-0.2254,0.03393,43.053,0.00677
0.860,1.4387,0.9420,0.01001,43.194,0.00709
0.880,-0.1052,0.1047,0.01330,43.241,0.00742
0.900,1.5163,0.3994,0.02480,43.185,0.00775
0.920,4.0212,-0.1352,0.00882,43.447,0.00810
0.940,4.6841,-0.0099,0.03747,43.800,0.00845
0.960,3.9263,0.3803,0.07061,44.124,0.00881
0.980,2.4308,-0.2145,0.01428,44.361,0.00918
1.000,-0.9833,0.5311,0.07011,44.425,0.00955
1.020,-1.1296,-0.1298,0.00577,44.208,0.00993
1.040,0.2677,0.3430,0.02849,44.207,0.01032
1.060,-0.1782,-0.1600,0.02582,44.325,0.01072
1.080,-0.8861,0.5706,0.02974,44.093,0.01112
1.100,1.7340,-0.3424,0.03616,44.164,0.01153
1.120,1.6670,0.2181,0.00804,44.242,0.01195
1.140,-0.6039,0.1803,0.02239,44.367,0.01238
1.160,-2.2041,-0.5536,0.07433,44.154,0.01281
1.180,-1.7876,-0.0938,0.00734,44.035,0.01325
1.200,-2.0518,0.2678,0.04317,43.956,0.01370
1.220,0.8324,-0.1771,0.03107,43.746,0.01415
1.240,1.6539,0.1629,0.04686,44.059,0.01462
1.260,-0.8176,-0.8312,0.03537,43.969,0.01509
1.280,0.3297,0.2897,0.00663,44.029,0.01557
1.300,1.2998,-0.0854,0.01384,43.982,0.01605
1.320,3.5884,-0.1367,0.05067,44.267,0.01654
1.340,2.8270,0.0024,0.05672,44.505,0.01704
1.360,-2.2004,0.0881,0.05115,44.619,0.01755
1.380,-2.6947,0.0174,0.03021,44.222,0.01807
1.400,0.7874,0.4342,0.03779,44.232,0.01859
1.420,2.3690,0.6938,0.04547,44.355,0.01912
1.440,0.0650,0.4894,0.01443,44.535,0.01966
1.460,0.9275,0.2432,0.05107,44.424,0.02020
1.480,-0.1600,0.8129,0.00216,44.752,0.02075
1.500,-1.5639,-0.1158,0.06377,44.514,0.02131
1.520,0.6553,0.1577,0.02732,44.395,0.02188
1.540,1.9191,-0.8420,0.05200,44.564,0.02245
1.560,2.4556,0.3828,0.04865,44.572,0.02303
1.580,3.2282,0.1954,0.00577,44.933,0.02362
1.600,-0.6928,0.7834,0.03670,44.967,0.02422
1.620,-1.7276,0.1249,0.02283,44.853,0.02482
1.640,-1.4562,0.0595,0.04264,44.785,0.02543
1.660,-3.0378,1.1954,0.01009,44.589,0.02605
1.680,-0.6652,0.5045,0.05610,44.359,0.02668
1.700,1.7208,0.0887,0.05861,44.472,0.02731
1.720,2.6192,-0.1959,0.03209,44.577,0.02795
1.740,0.6280,-0.1447,0.09426,44.810,0.02860
1.760,0.2818,0.8625,0.01435,44.674,0.02925
1.780,1.3138,0.4411,0.02643,44.978,0.02991
1.800,1.8713,0.6467,0.03958,44.926,0.03058
1.820,2.2418,0.5709,0.03533,45.210,0.03126
1.840,-1.4374,0.0855,0.02693,45.132,0.03194
1.860,-0.0191,0.1492,0.06364,44.999,0.03263
1.880,0.6853,0.7745,0.04326,45.044,0.03333
1.900,2.1206,0.3522,0.02695,45.230,0.03404
1.920,-0.9502,0.2573,0.03238,45.259,0.03475
1.940,-2.7784,0.2235,-0.01068,45.153,0.03547
1.960,-3.5126,0.3280,0.07803,44.912,0.03620
1.980,-0.9711,0.9222,0.02253,44.660,0.03693
2.000,1.4176,0.6510,0.04530,44.750,0.03768
2.020,1.4614,0.8402,0.04785,44.928,0.03843
2.040,-2.0926,-0.0400,0.03450,44.899,0.03918
2.060,-0.1662,0.0455,0.03060,44.705,0.03995
2.080,-0.8319,0.9282,0.02083,44.863,0.04072
2.100,-2.3745,0.5336,-0.00262,44.632,0.04150
2.120,-0.8927,0.5746,0.06237,44.504,0.04228
2.140,-2.3974,0.2928,0.05467,44.616,0.04307
2.160,-2.7989,0.9911,0.03076,44.210,0.04387
2.180,0.1478,0.6037,0.04914,44.280,0.04468
2.200,-1.4586,0.2896,0.03930,44.175,0.04550
2.220,0.7608,0.3197,0.03700,44.195,0.04632
2.240,-0.0216,0.3766,0.04207,44.181,0.04715
2.260,1.2202,0.8942,0.06930,44.218,0.04798
2.280,-1.0745,0.7423,0.05291,44.343,0.04883
2.300,0.5323,0.7597,0.02597,44.206,0.04968
2.320,3.0386,1.3996,0.06466,44.462,0.05054
2.340,2.5822,0.7947,0.03377,44.593,0.05140
2.360,2.1325,0.6816,0.06140,44.745,0.05227
2.380,2.9109,0.9310,0.06126,44.954,0.05315
2.400,2.1265,0.8805,-0.01266,45.096,0.05404
2.420,1.4237,-0.0670,0.05519,45.248,0.05493
2.440,-1.7530,0.0351,0.03577,45.262,0.05583
2.460,-1.3255,0.7389,0.04721,45.005,0.05674
2.480,-1.7949,0.8270,0.08901,44.980,0.05766
2.500,-2.4624,0.2871,0.06114,44.842,0.05858
2.520,-0.8222,0.2876,0.05150,44.586,0.05951
2.540,-0.0644,0.0046,0.01124,44.632,0.06045
2.560,-2.0947,0.4923,0.08510,44.530,0.06139
2.580,-2.3656,0.5279,0.05090,44.345,0.06234
2.600,-0.8491,0.7678,0.07382,44.157,0.06330
2.620,0.6839,0.4578,0.05428,44.205,0.06426
2.640,2.5356,0.4803,0.04563,44.270,0.06524
2.660,2.1791,1.0794,0.02309,44.508,0.06621
2.680,0.7466,0.6234,0.06356,44.505,0.06720
2.700,3.7992,0.8419,0.03538,44.693,0.06819
2.720,3.2103,0.1656,0.07872,44.945,0.06919
2.740,-1.5776,0.3015,0.08539,45.152,0.07020
2.760,-1.0419,1.0303,0.03542,44.727,0.07122
2.780,1.6523,1.2839,0.03114,44.948,0.07224
2.800,1.1417,0.5830,0.03288,45.009,0.07327
2.820,0.8617,0.8822,0.04207,45.085,0.07430
2.840,0.9264,0.7230,0.05524,45.152,0.07535
2.860,1.0296,1.5289,0.04039,45.221,0.07640
2.880,-0.0423,-0.3912,0.01733,45.278,0.07745
2.900,-2.9507,0.3843,0.06126,45.214,0.07852
2.920,-2.0266,-0.8689,0.02894,44.871,0.07959
2.940,-0.9118,0.8479,0.03547,44.852,0.08066
2.960,0.5387,1.3033,0.05547,44.707,0.08175
2.980,1.3335,0.6878,0.03181,44.902,0.08284
3.000,-1.0990,0.6945,0.06378,44.850,0.08394
3.020,-0.5991,0.7811,0.07310,44.865,0.08505
3.040,-0.7809,0.9949,0.07120,44.712,0.08616
3.060,-1.0747,-0.2454,0.07921,44.620,0.08728
3.080,-0.8683,0.3621,0.08469,44.618,0.08841
3.100,-2.2038,0.6640,0.05978,44.350,0.08954
3.120,-0.0506,0.5408,0.05142,44.404,0.09068
3.140,-1.3531,0.2630,0.04029,44.385,0.09183
3.160,-4.7155,-0.1001,0.08321,44.172,0.09298
3.180,-2.7190,0.3415,0.03324,43.740,0.09414
3.200,0.3116,0.7997,0.08221,43.833,0.09531
3.220,-0.8738,1.0485,0.04736,43.779,0.09649
3.240,-0.6235,0.6332,0.06380,43.684,0.09767
3.260,1.8353,0.5240,0.07108,43.641,0.09886
3.280,1.3630,0.9681,0.03143,43.968,0.10005
3.300,0.2504,1.1322,0.08038,43.959,0.10126
3.320,-1.2487,0.3090,0.05232,43.975,0.10247
3.340,-0.0124,0.6980,0.04683,43.707,0.10368
3.360,3.4747,1.3600,0.05705,44.004,0.10490
3.380,1.8911,0.7392,0.06815,44.169,0.10613
3.400,1.0646,0.8179,0.08401,44.361,0.10737
3.420,0.6903,0.8764,0.08852,44.369,0.10862
3.440,1.6033,1.1205,0.07428,44.534,0.10987
3.460,0.7173,0.1027,0.05921,44.601,0.11112
3.480,1.1970,0.9135,0.06481,44.711,0.11239
3.500,-1.8540,0.3565,0.06960,44.684,0.11366
3.520,-0.5763,0.6601,0.04859,44.419,0.11494
3.540,-0.8806,1.0259,0.05944,44.604,0.11622
3.560,-2.2325,0.6638,0.06749,44.256,0.11751
3.580,-0.4409,1.5962,0.00192,44.212,0.11881
3.600,-1.9286,0.7834,0.06612,44.176,0.12012
3.620,-0.5459,-0.0765,0.05568,43.988,0.12143
3.640,0.2886,0.5922,0.09649,44.098,0.12275
3.660,-0.6255,0.8294,0.08305,44.062,0.12407
3.680,-0.1042,0.8330,0.03712,43.984,0.12540
3.700,0.0284,1.2938,0.07882,44.077,0.12674
3.720,1.4956,0.1971,0.02794,43.991,0.12809
3.740,1.7806,1.2460,0.10335,44.241,0.12944
3.760,-0.2705,0.8312,0.05377,44.305,0.13080
3.780,-3.1507,0.4882,0.07056,44.219,0.13216
3.800,-4.3344,0.1840,0.09493,43.869,0.13353
3.820,0.6867,0.6631,0.06085,43.634,0.13491
3.840,1.6864,0.4075,0.06610,43.830,0.13630
3.860,-0.7432,1.4754,0.05286,43.820,0.13769
3.880,1.3582,0.6648,0.09906,43.770,0.13909
3.900,0.5129,1.2806,0.11406,44.065,0.14049
3.920,-1.8773,0.4085,0.07636,43.834,0.14191
3.940,-1.4236,0.5697,0.06382,43.729,0.14332
3.960,0.4065,1.5980,0.07901,43.644,0.14475
3.980,-0.8710,0.7382,0.07283,43.749,0.14618
4.000,-1.4956,1.0581,0.08571,43.630,0.14762
4.020,-2.2921,0.3758,0.08193,43.520,0.14906
4.040,-1.0990,0.9083,0.08850,43.231,0.15052
4.060,1.5598,0.9736,0.08421,43.362,0.15197
4.080,0.7667,0.4997,0.06620,43.507,0.15344
4.100,-0.8673,0.5021,0.04673,43.421,0.15491
4.120,-1.5961,0.9515,0.06078,43.451,0.15639
4.140,-2.0231,0.6905,0.07827,43.218,0.15787
4.160,0.6626,1.1754,0.09906,43.133,0.15936
4.180,2.8337,1.0840,0.06926,43.381,0.16086
4.200,2.8441,1.4555,0.09131,43.406,0.16236
4.220,0.9742,1.5415,0.06443,43.821,0.16387
4.240,0.0843,0.9152,0.07103,43.680,0.16539
4.260,0.5153,1.0473,0.07892,43.784,0.16691
4.280,0.3353,0.4081,0.11040,43.749,0.16844
4.300,0.7769,0.7637,0.07816,43.851,0.16998
4.320,-0.5533,0.5020,0.09268,43.850,0.17152
4.340,-1.9121,0.2399,0.07841,43.749,0.17307
4.360,2.8688,1.4844,0.07808,43.592,0.17462
4.380,3.7202,2.2877,0.11088,44.144,0.17619
4.400,-2.3116,0.9906,0.10018,44.130,0.17775
4.420,-3.5900,0.5395,0.03834,43.767,0.17933
4.440,-0.2379,0.5321,0.10528,43.651,0.18091
4.460,0.3483,1.2012,0.08593,43.773,0.18250
4.480,1.2130,1.7783,0.06195,43.683,0.18409
4.500,2.7660,1.0425,0.08245,43.928,0.18569
4.520,0.9524,0.8166,0.07915,44.108,0.18730
4.540,-0.5179,-0.2538,0.08191,44.081,0.18891
4.560,-2.2881,-0.0240,0.10411,43.996,0.19053
4.580,-2.7087,1.3145,0.06945,43.815,0.19215
4.600,-2.4858,1.1992,0.08992,43.689,0.19378
4.620,-0.3159,1.2032,0.09522,43.424,0.19542
4.640,3.0013,1.7987,0.08059,43.640,0.19707
4.660,0.1497,0.8167,0.07445,43.927,0.19872
4.680,-3.4387,0.6911,0.10996,43.701,0.20037
4.700,-3.9715,0.1423,0.10340,43.488,0.20204
4.720,-2.9673,1.0606,0.10805,43.169,0.20371
4.740,-5.1128,0.3058,0.08886,42.996,0.20538
4.760,-5.7958,0.2740,0.11259,42.437,0.20706
4.780,0.2434,1.0569,0.12302,42.231,0.20875
4.800,1.2164,0.9475,0.08109,42.465,0.21044
4.820,0.4362,1.5724,0.08063,42.402,0.21214
4.840,0.2559,0.8956,0.11619,42.556,0.21385
4.860,1.5876,0.7773,0.09995,42.468,0.21556
4.880,2.5309,1.9938,0.11687,42.785,0.21728
4.900,-0.4347,1.2567,0.10388,42.821,0.21901
4.920,2.2448,1.5794,0.09588,42.752,0.22074
4.940,2.4464,1.7949,0.09518,43.212,0.22247
4.960,-1.6738,1.5928,0.08834,43.153,0.22422
4.980,-1.1170,-0.2312,0.10151,42.934,0.22597
5.000,-0.1565,1.0096,0.09062,42.970,0.22772
5.020,2.1971,1.4700,0.08003,42.963,0.22948
5.040,0.9884,0.9312,0.12332,43.155,0.23125
5.060,-0.7589,0.6442,0.08770,42.989,0.23302
5.080,2.2285,2.1035,0.10665,43.134,0.23480
5.100,-0.3749,1.9931,0.06888,43.287,0.23659
5.120,-0.7996,1.2712,0.08927,43.167,0.23838
5.140,-0.3953,1.3481,0.08464,43.196,0.24018
5.160,1.9377,1.2051,0.07963,43.047,0.24198
5.180,1.3014,1.4198,0.09697,43.469,0.24379
5.200,-1.4123,0.8322,0.11366,43.342,0.24561
5.220,-3.0401,0.9099,0.09772,43.261,0.24743
5.240,-2.5654,0.4965,0.12528,43.069,0.24926
5.260,-0.6348,1.4719,0.10035,43.007,0.25109
5.280,0.3660,1.4305,0.09006,43.006,0.25293
5.300,0.5929,1.4559,0.11159,43.144,0.25477
5.320,-1.1409,1.4348,0.08660,43.034,0.25663
5.340,-1.6585,0.7843,0.07303,43.001,0.25848
5.360,-2.8988,-0.0293,0.10935,42.746,0.26035
5.380,2.1567,1.1857,0.07453,42.597,0.26221
5.400,4.4086,2.0512,0.08880,43.093,0.26409
5.420,0.8535,1.1108,0.07012,43.280,0.26597
5.440,-2.1563,0.3410,0.10980,43.139,0.26786
5.460,-3.4852,0.1192,0.07341,42.899,0.26975
5.480,-1.5581,0.8425,0.11526,42.723,0.27165
5.500,0.4344,1.1067,0.10070,42.719,0.27355
5.520,-1.7141,1.0460,0.07680,42.725,0.27546
5.540,-1.9664,0.1902,0.07425,42.591,0.27737
5.560,0.1531,1.5668,0.09390,42.360,0.27930
5.580,1.5760,0.8022,0.11369,42.616,0.28122
5.600,-1.0663,1.2352,0.11378,42.697,0.28316
5.620,-0.9634,0.8990,0.14997,42.630,0.28509
5.640,-0.4780,1.0486,0.14765,42.590,0.28704
5.660,-4.3353,0.5497,0.09686,42.495,0.28899
5.680,-3.4352,0.4291,0.10442,41.966,0.29094
5.700,-1.2279,0.8073,0.07644,41.987,0.29290
5.720,-2.8603,0.1460,0.08860,41.794,0.29487
5.740,-2.0892,0.7321,0.07746,41.614,0.29684
5.760,-0.4283,1.0120,0.10892,41.499,0.29882
5.780,-1.0414,0.7291,0.10220,41.630,0.30081
5.800,-3.7689,0.5610,0.12585,41.420,0.30280
5.820,-1.3912,0.8792,0.11332,41.162,0.30479
5.840,1.2146,1.7587,0.08537,41.277,0.30679
5.860,-0.4688,0.9996,0.10369,41.413,0.30880
5.880,-0.9142,0.5882,0.07447,41.240,0.31081
5.900,-0.6472,0.3615,0.11037,41.341,0.31283
5.920,-0.7409,1.2816,0.10806,41.289,0.31485
5.940,-1.5592,0.9748,0.08138,41.343,0.31688
5.960,-0.6128,1.0032,0.11677,41.116,0.31891
5.980,1.9799,1.4560,0.11768,41.266,0.32095
6.000,2.0138,1.6307,0.14378,41.482,0.32300
6.020,0.4718,1.5479,0.09454,41.597,0.32505
6.040,-3.6582,-0.7784,0.11787,41.698,0.32710
6.060,-4.6719,-0.3845,0.10955,41.019,0.32916
6.080,-0.3780,1.2618,0.14568,41.066,0.33123
6.100,-0.5253,1.0126,0.13335,41.061,0.33330
6.120,-1.0774,0.2960,0.12355,41.035,0.33538
6.140,-1.1119,0.7209,0.11836,40.921,0.33746
6.160,0.4688,1.0076,0.10012,40.931,0.33955
6.180,-0.8812,0.6510,0.09726,41.005,0.34165
6.200,-1.2485,0.2489,0.08071,40.958,0.34374
6.220,0.8887,1.3926,0.09615,40.874,0.34585
6.240,-0.0210,0.8509,0.11023,41.096,0.34796
6.260,-0.5663,1.8854,0.11241,40.897,0.35007
6.280,1.1792,1.6721,0.10728,41.082,0.35219
6.300,-0.4037,0.9489,0.14816,41.114,0.35432
6.320,-2.1078,0.6140,0.13074,40.969,0.35645
6.340,-1.6875,0.3142,0.07908,40.917,0.35859
6.360,-0.6158,1.3228,0.10459,40.751,0.36073
6.380,1.0918,1.7738,0.12892,40.873,0.36288
6.400,-1.0868,1.2611,0.11970,40.935,0.36503
6.420,-1.6840,0.5354,0.12233,40.835,0.36719
6.440,-0.9770,0.0350,0.09697,40.637,0.36935
6.460,1.9981,1.9145,0.11428,40.691,0.37152
6.480,0.6143,1.4118,0.17083,40.863,0.37369
6.500,-0.2913,1.2720,0.11003,40.843,0.37587
6.520,-1.0773,1.5327,0.10483,40.918,0.37805
6.540,-0.9586,0.8687,0.10794,40.851,0.38024
6.560,-1.1817,0.5166,0.10887,40.863,0.38243
6.580,-1.2200,1.3152,0.14378,40.810,0.38463
6.600,-2.1743,1.3793,0.10474,40.863,0.38683
6.620,-1.5309,0.2084,0.13387,40.592,0.38904
6.640,-0.0150,1.4577,0.12348,40.707,0.39126
6.660,0.7508,1.0462,0.10448,40.666,0.39347
6.680,0.2101,1.6340,0.09617,40.731,0.39570
6.700,-0.3837,1.1259,0.10353,40.669,0.39793
6.720,-1.0190,0.2461,0.13154,40.727,0.40016
6.740,-0.4634,0.3814,0.09664,40.534,0.40240
6.760,-1.2039,1.4568,0.18696,40.748,0.40464
6.780,-3.4003,-0.2323,0.13600,40.441,0.40689
6.800,-1.4194,0.4320,0.13390,40.254,0.40915
6.820,2.1289,1.9090,0.14104,40.297,0.41141
6.840,1.8318,2.0100,0.12447,40.560,0.41367
6.860,-0.8463,0.8332,0.13827,40.610,0.41594
6.880,-2.9765,0.2000,0.11977,40.565,0.41821
6.900,-2.2535,0.6038,0.14685,40.309,0.42049
6.920,-0.2337,0.5262,0.08122,40.275,0.42277
6.940,1.0040,2.4352,0.12209,40.271,0.42506
6.960,1.7742,2.0895,0.09376,40.575,0.42735
6.980,-0.5585,0.7729,0.10494,40.687,0.42965
7.000,0.0811,2.0076,0.14062,40.412,0.43195
7.020,1.2204,1.6011,0.13539,40.777,0.43426
7.040,-0.9510,0.4682,0.11004,40.706,0.43657
7.060,0.0482,1.6521,0.11004,40.547,0.43889
7.080,0.6485,2.2883,0.10649,40.813,0.44121
7.100,-0.9535,0.6126,0.12333,40.804,0.44354
7.120,-1.1872,1.6621,0.11672,40.738,0.44587
7.140,0.0395,0.9656,0.09443,40.777,0.44821
7.160,1.9244,2.2637,0.11434,40.929,0.45055
7.180,-1.1855,0.5299,0.13545,41.108,0.45289
7.200,0.3549,1.4544,0.12392,40.861,0.45524
7.220,2.3152,3.1206,0.13099,41.220,0.45760
7.240,-0.0112,1.3934,0.12010,41.391,0.45996
7.260,-2.3870,0.9235,0.13436,41.322,0.46232
7.280,-2.9324,0.2589,0.09792,41.175,0.46469
7.300,-0.8038,0.9626,0.10337,41.001,0.46706
7.320,-0.8471,1.0888,0.11079,41.023,0.46944
7.340,-1.8658,-0.4752,0.14693,40.906,0.47182
7.360,-0.5265,1.8552,0.14413,40.769,0.47421
7.380,0.5938,1.2414,0.13146,40.915,0.47660
7.400,-0.6217,1.2503,0.13826,40.980,0.47900
7.420,-0.3793,1.5103,0.13256,40.909,0.48140
7.440,1.9429,1.7439,0.17979,41.041,0.48380
7.460,-0.3285,1.2454,0.12148,41.287,0.48621
7.480,-2.3925,-0.0361,0.16238,41.090,0.48862
7.500,0.8432,1.0401,0.12968,40.982,0.49104
7.520,1.2221,2.2965,0.13130,41.152,0.49347
7.540,-0.0072,1.8483,0.11019,41.281,0.49589
7.560,1.5440,2.0620,0.12127,41.322,0.49832
7.580,-0.9527,1.3260,0.14097,41.531,0.50076
7.600,-3.8509,-0.8933,0.10450,41.335,0.50320
7.620,-2.4670,-0.0618,0.12037,41.069,0.50564
7.640,-1.2628,0.2630,0.12583,40.913,0.50809
7.660,-1.7688,0.6051,0.11595,40.935,0.51055
7.680,-1.9916,0.1766,0.14432,40.792,0.51300
7.700,-1.6590,-0.2763,0.14406,40.704,0.51547
7.720,-2.7328,0.4204,0.12611,40.528,0.51793
7.740,-2.3155,0.7959,0.14059,40.417,0.52040
7.760,-0.3554,0.6457,0.14319,40.236,0.52288
7.780,0.5595,2.1791,0.12642,40.302,0.52536
7.800,-0.9784,1.0584,0.10121,40.445,0.52784
7.820,-1.5491,0.9610,0.16689,40.359,0.53033
7.840,-1.6188,1.3322,0.10818,40.321,0.53282
7.860,-0.9243,1.4440,0.15045,40.217,0.53531
7.880,-2.1274,2.7844,0.17503,40.312,0.53781
7.900,1.2150,2.3015,0.14494,40.328,0.54032
7.920,-0.1264,1.3530,0.16568,40.615,0.54283
7.940,-1.2431,0.5958,0.12401,40.418,0.54534
7.960,0.2371,2.4656,0.13434,40.483,0.54785
7.980,-1.3734,1.0109,0.16188,40.563,0.55037
8.000,-0.1880,1.0190,0.11898,40.498,0.55290
8.020,-1.3857,0.8858,0.11195,40.604,0.55543
8.040,0.1715,1.2928,0.13193,40.345,0.55796
8.060,0.4109,1.2565,0.13832,40.726,0.56050
8.080,-0.7148,0.0754,0.13595,40.484,0.56304
8.100,-0.3722,0.5172,0.11992,40.650,0.56558
8.120,-1.3320,0.9461,0.14894,40.448,0.56813
8.140,-0.2229,1.4272,0.13186,40.655,0.57068
8.160,-1.3775,1.2115,0.10499,40.586,0.57324
8.180,-0.6968,1.3973,0.12475,40.615,0.57580
8.200,0.6121,2.5686,0.13915,40.624,0.57836
8.220,-0.6471,1.9298,0.14386,40.822,0.58093
8.240,-3.9113,-1.2047,0.15939,40.764,0.58350
8.260,-5.2377,-1.3576,0.11637,40.230,0.58608
8.280,-1.7465,1.6566,0.11095,40.094,0.58866
8.300,-1.5064,1.0685,0.14197,40.127,0.59124
8.320,-4.5335,3.2115,0.10614,40.047,0.59383
8.340,1.2113,2.9899,0.13171,40.186,0.59642
8.360,-0.6962,1.5754,0.12907,40.369,0.59901
8.380,-1.8350,0.3357,0.15505,40.342,0.60161
8.400,-1.2734,1.2871,0.14587,40.074,0.60422
8.420,2.6166,2.8020,0.15090,40.323,0.60682
8.440,-0.6008,2.3266,0.11841,40.518,0.60943
8.460,1.3974,2.1379,0.10272,40.464,0.61204
8.480,1.2224,2.3401,0.14325,40.844,0.61466
8.500,-2.4162,-0.0218,0.14447,40.781,0.61728
8.520,-2.7000,-0.2909,0.17559,40.576,0.61991
8.540,-0.0670,2.2861,0.13189,40.548,0.62253
8.560,-0.1601,1.1893,0.10751,40.742,0.62517
8.580,0.5404,1.4300,0.13103,40.573,0.62780
8.600,0.5798,1.7024,0.15835,40.925,0.63044
8.620,-0.1840,0.9158,0.13116,40.763,0.63308
8.640,0.8593,2.8542,0.12179,40.935,0.63573
8.660,-0.4818,1.7268,0.13235,41.033,0.63838
8.680,0.4208,2.3635,0.15446,41.005,0.64103
8.700,-0.9980,0.9494,0.11322,41.200,0.64369
8.720,-0.4578,1.2612,0.11364,40.930,0.64635
8.740,0.6113,1.7917,0.15072,41.174,0.64901
8.760,-1.2322,0.9968,0.17693,41.163,0.65168
8.780,-0.2702,1.1960,0.13428,41.065,0.65435
8.800,0.9050,2.7620,0.16403,41.200,0.65702
8.820,0.4803,2.5347,0.11933,41.391,0.65970
8.840,1.8117,2.8948,0.12704,41.529,0.66238
8.860,2.1572,4.1874,0.10740,41.889,0.66506
8.880,1.8480,2.8809,0.14982,42.084,0.66775
8.900,0.0604,2.6459,0.12617,42.315,0.67044
8.920,-1.5604,0.9383,0.15172,42.218,0.67313
8.940,-0.1958,1.7756,0.15823,42.237,0.67583
8.960,-0.5347,1.8796,0.13648,42.338,0.67853
8.980,-0.8743,1.7155,0.15936,42.335,0.68123
9.000,0.0730,2.0614,0.11665,42.389,0.68394
9.020,-0.1545,2.2404,0.17432,42.466,0.68665
9.040,0.1718,2.0182,0.12398,42.618,0.68936
9.060,-1.5473,0.5620,0.13407,42.600,0.69208
9.080,-1.9366,-0.2106,0.13001,42.537,0.69480
9.100,-2.7879,0.5349,0.14274,42.388,0.69752
9.120,-0.9819,1.6636,0.12366,42.227,0.70025
9.140,-0.2022,2.1147,0.15756,42.438,0.70298
9.160,0.0098,1.1768,0.14660,42.423,0.70571
9.180,-2.1616,1.3042,0.20201,42.564,0.70845
9.200,-4.0169,-1.4421,0.15352,42.331,0.71118
9.220,-4.0789,-1.7814,0.15152,41.982,0.71393
9.240,-1.1128,1.1289,0.16689,41.793,0.71667
9.260,1.8052,3.3188,0.12868,42.000,0.71942
9.280,0.0186,2.4395,0.12841,42.192,0.72217
9.300,-1.7541,1.2654,0.13623,42.252,0.72492
9.320,-2.5138,-0.9483,0.09236,42.107,0.72768
9.340,-2.1733,1.2721,0.15179,42.084,0.73044
9.360,-1.7231,0.4189,0.12339,42.030,0.73320
9.380,-3.9431,-1.0791,0.17204,41.968,0.73596
9.400,-3.8616,-1.8012,0.11464,41.517,0.73873
9.420,-1.9123,0.4911,0.14417,41.363,0.74150
9.440,-0.1777,2.5669,0.08659,41.328,0.74428
9.460,1.0881,3.0123,0.09284,41.601,0.74705
9.480,0.8195,2.5639,0.15948,41.630,0.74983
9.500,-0.1261,2.3134,0.15824,41.882,0.75262
9.520,-1.3345,0.7990,0.12722,41.811,0.75540
9.540,-4.1371,-2.6870,0.15776,41.766,0.75819
9.560,-4.0115,-1.8377,0.15178,41.064,0.76098
9.580,-0.3615,2.4729,0.18522,41.147,0.76377
9.600,1.0629,2.3053,0.12991,41.246,0.76657
9.620,0.1471,2.8397,0.14174,41.563,0.76937
9.640,-1.3185,0.7357,0.15719,41.476,0.77217
9.660,-1.1670,0.9914,0.14608,41.493,0.77497
9.680,-2.6298,-0.6016,0.19377,41.366,0.77778
9.700,-3.4205,-1.1221,0.16905,41.154,0.78059
9.720,-2.3395,-0.4481,0.14183,41.026,0.78340
9.740,-0.6223,1.7424,0.17988,40.964,0.78622
9.760,0.2460,1.7440,0.13903,41.208,0.78903
9.780,-1.8968,0.7251,0.11623,41.208,0.79185
9.800,-1.5286,-0.0826,0.16241,41.066,0.79468
9.820,-0.9883,0.6787,0.15779,41.091,0.79750
9.840,-1.7979,1.0278,0.14470,41.130,0.80033
9.860,-0.3026,1.4195,0.15920,41.009,0.80316
9.880,-1.5963,0.0061,0.11513,41.214,0.80599
9.900,-3.0287,-1.1005,0.13399,40.875,0.80883
9.920,-1.3969,1.4021,0.14766,40.836,0.81166
9.940,-2.2125,0.4167,0.16045,40.956,0.81450
9.960,-2.4365,0.0095,0.15559,40.715,0.81734
9.980,0.2548,1.5411,0.16024,40.780,0.82019
10.000,-0.0362,2.3018,0.15125,41.013,0.82304
10.020,-1.7602,-0.6403,0.12525,41.094,0.82589
10.040,-2.8897,-1.2687,0.14053,40.790,0.82874
10.060,-0.7881,1.6537,0.13842,40.659,0.83159
10.080,-0.2054,2.4338,0.15675,40.881,0.83445
10.100,-1.1166,1.2025,0.16843,40.935,0.83731
10.120,-0.6867,1.3641,0.13253,40.933,0.84017
10.140,-0.1941,1.3518,0.13743,41.012,0.84303
10.160,-1.2467,1.3585,0.14671,41.142,0.84590
10.180,-1.5335,0.3877,0.17612,41.014,0.84876
10.200,-1.4412,1.1621,0.15831,40.962,0.85163
10.220,-1.5661,0.7418,0.13524,40.988,0.85450
10.240,-1.5183,0.0267,0.15179,40.890,0.85738
10.260,-0.1341,1.9905,0.12557,40.866,0.86025
10.280,-0.4922,1.2245,0.17480,41.100,0.86313
10.300,-0.6260,1.5906,0.17346,40.925,0.86601
10.320,1.5482,5.2649,0.16708,41.272,0.86890
10.340,-0.8200,1.3455,0.13808,41.610,0.87178
10.360,-2.6609,-0.0972,0.14844,41.302,0.87467
10.380,-0.7477,1.6104,0.13328,41.277,0.87756
10.400,-1.2712,0.7233,0.18362,41.338,0.88045
10.420,-2.1384,-0.5473,0.14545,41.201,0.88334
10.440,-2.3944,0.1118,0.15599,41.068,0.88623
10.460,-0.8783,1.3010,0.16102,41.025,0.88913
10.480,-1.2736,0.8559,0.13948,41.158,0.89203
10.500,-0.4059,1.9021,0.16085,41.066,0.89493
10.520,0.4476,3.1984,0.16232,41.395,0.89783
10.540,-0.5078,0.6851,0.14180,41.447,0.90074
10.560,0.6085,2.2594,0.14466,41.429,0.90364
10.580,-0.0036,2.4790,0.13924,41.690,0.90655
10.600,-0.5349,2.4777,0.16974,41.802,0.90946
10.620,-1.5804,0.9924,0.16876,41.869,0.91237
10.640,-0.4798,2.3874,0.16327,41.809,0.91528
10.660,0.5820,3.7128,0.16665,42.136,0.91820
10.680,-1.5001,1.4459,0.16648,42.282,0.92112
10.700,-2.5105,-1.3202,0.16025,42.245,0.92404
10.720,-2.6720,-0.3956,0.14782,41.961,0.92696
10.740,-1.9592,0.8017,0.16822,42.028,0.92988
10.760,-3.7614,-1.7711,0.16315,41.823,0.93280
10.780,-2.5202,-0.5804,0.16228,41.514,0.93573
10.800,-0.9902,1.9728,0.17285,41.464,0.93866
10.820,0.0737,2.6499,0.14141,41.514,0.94158
10.840,-0.2015,2.4780,0.11797,41.745,0.94451
10.860,-1.1834,2.5830,0.15404,41.796,0.94745
10.880,-2.0637,0.5623,0.16473,41.941,0.95038
10.900,-2.0673,-0.7277,0.15534,41.720,0.95332
10.920,-1.5117,0.5248,0.16945,41.716,0.95625
10.940,-0.7674,1.6796,0.14668,41.739,0.95919
10.960,-0.4466,2.0541,0.16390,41.894,0.96213
10.980,0.1400,1.7557,0.14850,41.915,0.96507
11.000,-1.4481,1.0974,0.14995,42.059,0.96801
11.020,-1.3001,0.3211,0.14348,41.969,0.97096
11.040,-1.0582,1.5423,0.18146,42.033,0.97390
11.060,-2.4081,0.0955,0.18602,42.108,0.97685
11.080,-2.2650,-0.9173,0.14118,41.883,0.97980
11.100,-1.5791,0.4360,0.10310,41.914,0.98275
11.120,-3.0857,-0.5397,0.12229,41.857,0.98570
11.140,-1.8276,0.3655,0.16054,41.514,0.98865
11.160,-1.0852,2.0450,0.16666,41.687,0.99161
11.180,-3.0331,-1.1945,0.14522,41.621,0.99456
11.200,-2.0050,-0.4493,0.14317,41.468,0.99752
11.220,-1.3525,0.8298,0.15884,41.400,1.00047
11.240,-0.8586,2.6014,0.17066,41.425,1.00343
11.260,-0.7666,2.6475,0.14854,41.696,1.00639
11.280,-1.3918,1.3666,0.14232,41.666,1.00935
11.300,0.0838,3.0702,0.16160,41.751,1.01232
11.320,-0.2595,3.3188,0.16420,41.999,1.01528
11.340,0.0039,1.8924,0.15945,42.095,1.01825
11.360,-1.3473,1.6461,0.13154,42.287,1.02121
11.380,-0.9077,0.7230,0.17570,42.201,1.02418
11.400,-0.9797,1.8098,0.15183,42.340,1.02715
11.420,-0.9450,2.4854,0.13718,42.330,1.03012
11.440,-1.0717,0.9087,0.15714,42.523,1.03309
11.460,-2.2719,-1.6941,0.13737,42.342,1.03606
11.480,-0.9183,0.8362,0.16448,42.202,1.03903
11.500,-0.8334,1.9905,0.17234,42.431,1.04200
11.520,-1.3941,-0.0031,0.14619,42.395,1.04498
11.540,-1.1654,1.1816,0.20593,42.331,1.04795
11.560,-1.9713,0.0575,0.14971,42.345,1.05093
11.580,-1.0347,2.2726,0.16800,42.220,1.05391
11.600,-2.0269,0.9144,0.14268,42.460,1.05689
11.620,-2.6064,-1.1429,0.16372,42.235,1.05986
11.640,-0.9694,1.9273,0.13772,42.208,1.06284
11.660,-1.7158,0.9626,0.16040,42.271,1.06582
11.680,-1.8935,0.4158,0.18670,42.252,1.06881
11.700,-2.4961,-0.4366,0.12826,42.107,1.07179
11.720,-1.0893,0.2534,0.12616,41.951,1.07477
11.740,-1.7820,0.4044,0.13848,42.028,1.07776
11.760,-2.4631,0.7607,0.15705,41.842,1.08074
11.780,-2.1632,0.3670,0.17071,41.959,1.08373
11.800,-2.5242,-1.6285,0.15976,41.684,1.08671
11.820,-1.5385,-0.2358,0.17392,41.584,1.08970
11.840,-1.9917,-0.1203,0.15137,41.591,1.09269
11.860,-1.3182,0.3296,0.13931,41.365,1.09568
11.880,-1.0204,0.7134,0.15890,41.483,1.09866
11.900,-2.8365,-0.0001,0.13224,41.480,1.10165
11.920,-3.1717,-2.6627,0.14646,41.293,1.10464
11.940,-3.1124,-2.8591,0.15070,41.020,1.10764
11.960,-2.5865,-1.2067,0.12928,40.738,1.11063
11.980,-1.9364,-0.6350,0.17662,40.747,1.11362
12.000,-2.7329,-2.1351,0.16560,40.539,1.11661
12.020,-1.6862,-1.4650,0.12228,40.293,1.11960
12.040,-0.6406,3.4170,0.17064,40.251,1.12260
12.060,-0.5748,3.8028,0.14791,40.661,1.12559
12.080,-1.4274,2.1293,0.14651,40.711,1.12859
12.100,-1.1578,2.3071,0.15631,40.849,1.13158
12.120,-0.7677,2.3244,0.14795,40.887,1.13458
12.140,-1.8488,0.1318,0.18209,41.028,1.13757
12.160,-2.6961,-1.2554,0.13889,40.786,1.14057
12.180,-2.0254,0.2563,0.12862,40.709,1.14356
12.200,-1.4640,1.1109,0.13834,40.756,1.14656
12.220,-1.3569,0.3074,0.15774,40.752,1.14956
12.240,-1.4869,-1.0155,0.11026,40.718,1.15256
12.260,-1.4648,-0.2215,0.13162,40.598,1.15555
12.280,-1.7284,-0.9465,0.12973,40.552,1.15855
12.300,-2.9564,-2.4326,0.10967,40.412,1.16155
12.320,-3.5195,-2.7794,0.14868,39.976,1.16455
12.340,-1.7072,0.1004,0.14590,39.761,1.16755
12.360,0.1012,2.5450,0.16089,39.847,1.17055
12.380,0.1810,4.5408,0.15164,40.127,1.17355
12.400,-0.2846,2.4149,0.13317,40.454,1.17655
12.420,-1.0384,1.4593,0.13627,40.471,1.17954
12.440,-0.4750,2.3365,0.17262,40.632,1.18254
12.460,-1.7886,0.8090,0.13499,40.795,1.18554
12.480,-3.1455,-2.1295,0.16998,40.671,1.18854
12.500,-2.6832,-1.3696,0.15903,40.365,1.19154
12.520,-3.0824,-1.3025,0.14333,40.371,1.19454
12.540,-2.1141,-2.2493,0.15696,40.053,1.19754
12.560,-0.4230,1.3613,0.13855,39.996,1.20054
12.580,-1.9504,0.0430,0.17675,40.105,1.20354
12.600,-2.4421,-1.3025,0.12199,39.850,1.20654
12.620,-0.8032,2.2183,0.15137,39.855,1.20954
12.640,-0.1710,2.1717,0.13755,40.079,1.21254
12.660,-1.0982,1.2545,0.16251,40.144,1.21554
12.680,-0.3948,2.2041,0.14429,40.238,1.21854
12.700,-0.4091,4.0260,0.14396,40.401,1.22154
12.720,-0.6473,2.6625,0.16322,40.713,1.22454
12.740,-1.5775,2.2811,0.13940,40.740,1.22754
12.760,-0.9278,2.0273,0.18097,40.961,1.23054
12.780,-2.1824,-0.7202,0.14949,40.950,1.23354
12.800,-2.0741,-0.8819,0.15344,40.852,1.23654
12.820,-2.3027,-0.3928,0.15073,40.908,1.23954
12.840,-1.7931,-1.1203,0.11506,40.799,1.24253
12.860,-1.1130,-1.2099,0.14733,40.696,1.24553
12.880,-2.9844,-3.3203,0.11952,40.587,1.24853
12.900,-2.5134,-2.8275,0.16788,40.174,1.25153
12.920,-2.1297,-0.7987,0.10464,40.192,1.25453
12.940,-1.8882,-0.7287,0.13366,39.965,1.25752
12.960,-0.6326,2.6234,0.16129,39.946,1.26052
12.980,-1.2010,1.8051,0.18800,40.207,1.26351
13.000,-2.1002,-1.1035,0.17102,40.113,1.26651
13.020,-1.9604,1.6564,0.15004,40.015,1.26950
13.040,-0.5928,2.0028,0.14678,40.261,1.27250
13.060,-0.9715,2.6327,0.16548,40.359,1.27549
13.080,-2.0584,1.5468,0.16130,40.535,1.27849
13.100,-1.8960,0.5754,0.12343,40.471,1.28148
13.120,-1.9365,0.6350,0.18757,40.606,1.28447
13.140,-2.2196,-1.0702,0.17174,40.482,1.28747
13.160,-1.9526,0.3952,0.16620,40.360,1.29046
13.180,-1.2522,1.1473,0.15481,40.468,1.29345
13.200,-1.8918,0.6855,0.14577,40.360,1.29644
13.220,-0.7196,3.7442,0.17009,40.498,1.29943
13.240,-1.7584,0.7915,0.14934,40.929,1.30242
13.260,-2.1036,-2.0790,0.15547,40.625,1.30541
13.280,-1.6325,0.2133,0.16830,40.490,1.30840
13.300,-1.2623,1.6580,0.16805,40.691,1.31138
13.320,-1.0431,1.0035,0.16394,40.665,1.31437
13.340,-1.5397,0.8041,0.16222,40.874,1.31736
13.360,-1.8562,-0.4840,0.13281,40.692,1.32034
13.380,-1.2296,1.0043,0.11124,40.752,1.32333
13.400,-1.4415,-0.2273,0.20258,40.725,1.32631
13.420,-1.4024,0.3477,0.15168,40.750,1.32929
13.440,-2.0030,-0.8306,0.12795,40.810,1.33227
13.460,-2.1886,-2.6511,0.16684,40.590,1.33526
13.480,-1.7800,1.2344,0.14428,40.397,1.33824
13.500,-0.5041,2.3657,0.16480,40.649,1.34122
13.520,-1.3642,0.8516,0.16014,40.702,1.34419
13.540,-1.3940,0.2961,0.13224,40.721,1.34717
13.560,-1.7647,1.2546,0.13468,40.713,1.35015
13.580,-1.8950,-1.5283,0.12963,40.777,1.35313
13.600,-1.8859,-2.3818,0.16911,40.569,1.35610
13.620,-2.2886,0.1441,0.13228,40.389,1.35907
13.640,-1.3177,1.4380,0.15448,40.624,1.36205
13.660,-1.5957,2.2923,0.16962,40.651,1.36502
13.680,-1.9856,1.1192,0.15213,40.804,1.36799
13.700,-1.1387,1.6442,0.14858,40.695,1.37096
13.720,-1.4877,2.0752,0.16594,40.943,1.37393
13.740,-1.8254,1.5092,0.15592,41.005,1.37690
13.760,-0.9675,1.7473,0.11874,41.092,1.37986
13.780,-2.4210,-0.0053,0.16649,41.191,1.38283
13.800,-1.8058,-2.7238,0.13061,41.047,1.38579
13.820,-1.8393,-2.8860,0.17668,40.711,1.38876
13.840,-2.2938,1.2502,0.16584,40.518,1.39172
13.860,-1.0500,4.3869,0.14309,40.811,1.39468
13.880,-1.2855,1.8748,0.17166,41.045,1.39764
13.900,-1.3396,-0.6471,0.12955,40.983,1.40060
13.920,-1.6714,1.3967,0.18462,40.929,1.40355
13.940,-1.4993,0.8516,0.11941,41.115,1.40651
13.960,-1.6064,-2.2133,0.15714,41.085,1.40947
13.980,-1.9810,0.6262,0.15511,40.851,1.41242
14.000,-1.0406,2.0250,0.11749,41.079,1.41537
14.020,-1.5512,-2.1710,0.18700,41.165,1.41832
14.040,-2.5530,-3.5574,0.15798,40.712,1.42127
14.060,-1.5092,0.0185,0.12276,40.655,1.42422
14.080,-1.4555,1.5092,0.15052,40.681,1.42716
14.100,-1.9086,1.4886,0.16138,40.768,1.43011
14.120,-1.6211,-0.4554,0.16515,40.795,1.43305
14.140,-1.8281,-0.5300,0.16734,40.681,1.43600
14.160,-1.8854,0.3185,0.12103,40.660,1.43894
14.180,-1.7359,0.4188,0.14844,40.713,1.44188
14.200,-2.0865,-1.0096,0.18735,40.665,1.44481
14.220,-1.3042,1.6351,0.16336,40.598,1.44775
14.240,-1.3839,0.7096,0.14842,40.823,1.45068
14.260,-1.4832,-1.7451,0.15889,40.653,1.45362
14.280,-1.8844,-2.3275,0.13602,40.590,1.45655
14.300,-1.7081,-1.8514,0.14566,40.224,1.45948
14.320,-1.6193,1.3281,0.15148,40.322,1.46241
14.340,-1.1426,1.8457,0.14447,40.471,1.46533
14.360,-1.6527,2.0655,0.17433,40.570,1.46826
14.380,-1.1987,2.1360,0.13915,40.735,1.47118
14.400,-1.6861,1.0480,0.17217,40.814,1.47410
14.420,-1.8145,1.5860,0.16651,40.876,1.47702
14.440,-1.4208,0.5441,0.17492,40.961,1.47994
14.460,-0.8506,0.9742,0.12437,40.913,1.48286
14.480,-1.1712,1.0852,0.15158,41.127,1.48577
14.500,-1.9665,-1.5668,0.16302,41.064,1.48868
14.520,-2.2187,-1.3836,0.16930,40.801,1.49160
14.540,-1.9469,3.9678,0.14665,40.954,1.49450
14.560,-1.4082,0.9320,0.11862,41.287,1.49741
14.580,-1.6355,-0.8927,0.18132,41.114,1.50032
14.600,-2.4393,-1.0831,0.15282,41.096,1.50322
14.620,-1.7480,-0.9020,0.15831,40.972,1.50612
14.640,-1.1903,-0.0658,0.17082,40.904,1.50902
14.660,-1.6868,-2.1609,0.13550,40.912,1.51192
14.680,-1.7061,-2.5385,0.18539,40.689,1.51482
14.700,-2.1560,-2.2917,0.13022,40.639,1.51771
14.720,-1.4241,-2.9450,0.17136,40.375,1.52060
14.740,-1.9482,-2.5648,0.14013,40.273,1.52349
14.760,-1.9078,-2.4439,0.14609,40.059,1.52638
14.780,-1.2294,-3.6554,0.12523,39.868,1.52927
14.800,-1.9728,-0.8699,0.14347,39.559,1.53215
14.820,-1.5417,1.9720,0.16878,39.778,1.53503
14.840,-1.5964,-2.1832,0.13035,39.870,1.53791
14.860,-1.4733,-3.3474,0.15491,39.525,1.54079
14.880,-0.9506,-1.9281,0.14955,39.417,1.54366
14.900,-1.5657,-1.0220,0.12263,39.297,1.54654
14.920,-1.3567,-2.1286,0.12941,39.172,1.54941
14.940,-1.5605,-0.8363,0.15081,38.912,1.55228
14.960,-2.1624,0.9221,0.12823,39.048,1.55514
14.980,-1.0569,0.3514,0.12043,38.976,1.55801
15.000,-1.1970,1.1586,0.17916,39.061,1.56087
15.020,-1.0104,2.3474,0.10649,39.155,1.56373
15.040,-1.9250,-0.6323,0.14465,39.403,1.56659
15.060,-1.4551,0.5554,0.12882,39.076,1.56944
15.080,-0.7537,4.1295,0.14683,39.389,1.57230
15.100,-0.6436,2.1099,0.18094,39.618,1.57515
15.120,-1.5236,3.2544,0.14872,39.721,1.57800
15.140,-1.4427,2.8234,0.15185,40.150,1.58084
15.160,-1.9391,1.2843,0.16244,40.187,1.58369
15.180,-1.6193,0.2630,0.14686,40.335,1.58653
15.200,-1.8562,0.5690,0.17566,40.202,1.58937
15.220,-1.1539,1.2149,0.15977,40.406,1.59220
15.240,-1.6910,-0.3324,0.15958,40.436,1.59504
15.260,-1.6377,2.3315,0.11766,40.355,1.59787
15.280,-1.2906,1.3690,0.16394,40.736,1.60070
15.300,-1.5873,-0.8786,0.12911,40.681,1.60352
15.320,-1.1190,-0.7554,0.13317,40.683,1.60635
15.340,-1.5606,-1.4892,0.13675,40.647,1.60917
15.360,-1.2275,-0.4630,0.16979,40.511,1.61199
15.380,-2.0113,1.1785,0.15808,40.607,1.61480
15.400,-1.6091,1.2627,0.16052,40.740,1.61762
15.420,-1.9967,-3.7319,0.15128,40.804,1.62043
15.440,-1.7905,-1.7554,0.16960,40.379,1.62324
15.460,-1.8634,0.3600,0.14471,40.560,1.62604
15.480,-0.6335,-1.4092,0.16084,40.497,1.62885
15.500,-1.8962,-1.5358,0.15651,40.278,1.63165
15.520,-0.8327,0.7923,0.15465,40.387,1.63445
15.540,-1.2080,-1.1028,0.15342,40.488,1.63724
15.560,-1.4595,2.1228,0.15397,40.300,1.64003
15.580,-1.9163,0.8573,0.16078,40.745,1.64282
15.600,-0.9112,-3.7675,0.14215,40.528,1.64561
15.620,-0.4670,-3.3193,0.11485,40.216,1.64839
15.640,-1.1338,0.2692,0.13821,40.008,1.65117
15.660,-1.4622,0.8313,0.14694,40.264,1.65395
15.680,-1.4045,-0.8752,0.15070,40.232,1.65673
15.700,-1.1666,-0.7595,0.14572,40.165,1.65950
15.720,-1.3468,-1.1382,0.15639,40.154,1.66227
15.740,-1.4126,-2.0960,0.13283,40.046,1.66504
15.760,-0.9655,-1.5724,0.13875,39.922,1.66780
15.780,-1.6137,-0.0159,0.15238,39.807,1.67056
15.800,-1.3382,2.3513,0.15294,39.934,1.67332
15.820,-0.6226,0.1142,0.14815,40.118,1.67608
15.840,-0.9770,-1.5294,0.15344,39.928,1.67883
15.860,-1.8029,0.8364,0.12842,39.971,1.68158
15.880,-1.4962,0.1418,0.12436,40.113,1.68433
15.900,-0.8078,-3.0527,0.11662,39.918,1.68707
15.920,-1.5532,-1.6057,0.18239,39.828,1.68981
15.940,-0.3432,-2.4639,0.16456,39.641,1.69255
15.960,-1.3323,-1.6834,0.13036,39.408,1.69528
15.980,-1.2737,-0.7701,0.14865,39.427,1.69801
16.000,-1.2442,0.8735,0.15275,39.294,1.70074
16.020,-0.2218,0.1846,0.11753,39.408,1.70346
16.040,-0.3674,-0.0675,0.14458,39.403,1.70619
16.060,-1.6727,0.1606,0.16145,39.477,1.70890
16.080,-1.4188,-1.5852,0.11926,39.424,1.71162
16.100,-1.0237,-0.7200,0.16360,39.310,1.71433
16.120,-0.7160,-0.0550,0.14212,39.294,1.71704
16.140,-1.6820,-1.3340,0.13537,39.293,1.71975
16.160,-1.4943,-0.0857,0.10654,39.166,1.72245
16.180,-1.7170,1.0122,0.17198,39.242,1.72515
16.200,-1.7347,0.8519,0.12470,39.377,1.72784
16.220,-1.1808,2.1713,0.11358,39.405,1.73054
16.240,-1.2694,1.7899,0.12321,39.714,1.73323
16.260,-0.8205,0.1435,0.15087,39.600,1.73591
16.280,-1.6194,0.2519,0.08874,39.694,1.73859
16.300,-1.8059,-0.5923,0.16244,39.620,1.74127
16.320,-1.2898,-0.5645,0.08739,39.662,1.74395
16.340,-1.7608,-0.6287,0.13337,39.513,1.74662
16.360,-1.5953,0.9655,0.12620,39.714,1.74929
16.380,-1.2840,1.8143,0.17201,39.745,1.75196
16.400,-2.2513,-0.0631,0.15756,39.960,1.75462
16.420,-0.6901,-1.8443,0.13861,39.732,1.75728
16.440,-0.2011,-1.3773,0.14972,39.643,1.75993
16.460,-1.5286,-2.1145,0.12749,39.483,1.76258
16.480,-0.9455,-2.2520,0.16182,39.387,1.76523
16.500,-1.6372,-1.8984,0.14121,39.262,1.76788
16.520,0.8439,-2.3522,0.14877,39.240,1.77052
16.540,-1.2967,-0.1820,0.14002,39.237,1.77315
16.560,-0.4708,-0.1235,0.15347,39.230,1.77579
16.580,-0.6118,-0.8551,0.13990,39.130,1.77842
16.600,-1.5803,1.3556,0.13824,39.164,1.78104
16.620,-0.9258,0.5628,0.17263,39.321,1.78367
16.640,-2.2089,-1.0813,0.13536,39.159,1.78629
16.660,-1.4588,0.5193,0.16678,39.159,1.78890
16.680,-1.5447,0.6533,0.12438,39.146,1.79152
16.700,-1.2158,-0.1193,0.12569,39.230,1.79412
16.720,-1.6231,-0.9328,0.14531,39.218,1.79673
16.740,-1.3947,-1.4998,0.12211,39.216,1.79933
16.760,-1.4145,-1.1414,0.12994,39.037,1.80193
16.780,-0.8256,-1.5736,0.08154,39.041,1.80452
16.800,-1.0441,-0.3417,0.12221,38.875,1.80711
16.820,-1.5754,0.3018,0.12267,38.968,1.80970
16.840,-0.9121,-0.4843,0.17681,38.949,1.81228
16.860,-1.0990,-1.4352,0.13772,38.957,1.81486
16.880,-1.5238,-0.5692,0.13163,38.796,1.81743
16.900,-2.0348,1.4032,0.13534,38.941,1.82000
16.920,-2.6197,1.4512,0.11277,39.066,1.82257
16.940,-2.2100,3.5653,0.13879,39.221,1.82513
16.960,-1.7167,1.7245,0.14202,39.622,1.82769
16.980,-1.4812,0.7883,0.14969,39.612,1.83024
17.000,-0.5929,0.4869,0.11786,39.829,1.83279
17.020,-1.5388,-0.7899,0.14172,39.806,1.83534
17.040,-2.0738,0.4778,0.12344,39.877,1.83788
17.060,-0.8010,-0.7285,0.14902,39.943,1.84042
17.080,-0.9900,0.1251,0.13743,39.991,1.84296
17.100,-1.7369,-0.2467,0.10630,40.109,1.84549
17.120,-1.2357,-1.4026,0.14750,40.055,1.84802
17.140,-1.6945,0.2525,0.09856,40.062,1.85054
17.160,-1.8803,2.7028,0.13033,40.158,1.85306
17.180,-1.7505,0.5812,0.14575,40.473,1.85557
17.200,-0.0483,-4.0879,0.12936,40.321,1.85808
17.220,-0.0758,-2.7994,0.11007,39.996,1.86059
17.240,-0.3437,-0.6718,0.12038,39.909,1.86309
17.260,-1.5359,-0.6257,0.11983,39.925,1.86559
17.280,-1.0601,0.1895,0.14695,39.957,1.86809
17.300,-1.3265,1.0802,0.14160,39.973,1.87058
17.320,-1.9792,2.1519,0.10452,40.186,1.87306
17.340,-0.9712,0.5137,0.14617,40.362,1.87554
17.360,-0.8978,-1.3006,0.14531,40.353,1.87802
17.380,-0.8985,-1.7636,0.13214,40.268,1.88049
17.400,-0.1404,-1.2930,0.08721,40.206,1.88296
17.420,-1.3387,-1.4072,0.14596,40.142,1.88543
17.440,-0.0682,-2.7791,0.13575,40.101,1.88789
17.460,-0.7368,-2.6764,0.14468,39.818,1.89034
17.480,-0.6426,-1.6301,0.08140,39.735,1.89279
17.500,-0.6559,-1.7356,0.11384,39.659,1.89524
17.520,-0.6615,-1.3724,0.13000,39.625,1.89768
17.540,-0.8078,0.3880,0.10974,39.579,1.90012
17.560,-1.5374,0.3446,0.17747,39.700,1.90256
17.580,-1.3122,-1.6424,0.09998,39.604,1.90499
17.600,-1.1661,-0.5058,0.13768,39.525,1.90741
17.620,-1.2003,-0.2716,0.15191,39.623,1.90983
17.640,-1.2255,-0.3805,0.16187,39.581,1.91225
17.660,-0.5751,0.5725,0.14054,39.620,1.91466
17.680,-1.6097,1.7803,0.13702,39.740,1.91707
17.700,-1.9956,0.2482,0.11327,39.816,1.91947
17.720,-1.5030,-0.4719,0.11942,39.861,1.92187
17.740,-1.2141,0.3038,0.08126,39.826,1.92427
17.760,-1.5999,0.9593,0.10379,39.948,1.92666
17.780,-0.8321,-6.3456,0.11862,39.980,1.92904
17.800,-0.5377,-1.5586,0.12131,39.889,1.93142
17.820,-0.1991,-2.0774,0.14269,39.862,1.93380
17.840,0.1499,-2.9614,0.13427,39.643,1.93617
17.860,0.4493,-3.8340,0.10320,39.470,1.93854
17.880,-0.0370,-2.7391,0.14368,39.131,1.94090
17.900,-0.8162,0.5185,0.13008,39.008,1.94326
17.920,-1.0417,0.9386,0.08466,39.249,1.94561
17.940,-1.5243,0.2349,0.08108,39.149,1.94796
17.960,-1.3184,-0.2002,0.11382,39.290,1.95030
17.980,-0.3862,-1.5866,0.14405,39.290,1.95264
18.000,-0.8497,0.1594,0.12632,39.164,1.95497
18.020,-1.8408,1.7467,0.13349,39.404,1.95730
18.040,-0.2222,-1.7660,0.10374,39.509,1.95963
18.060,-1.5642,-1.6864,0.12109,39.194,1.96195
18.080,-1.1969,-0.3534,0.10490,39.381,1.96426
18.100,-0.5042,-2.3505,0.12523,39.188,1.96657
18.120,-1.7509,0.2983,0.13041,39.156,1.96888
18.140,-1.2821,0.4528,0.08917,39.276,1.97118
18.160,-1.6087,0.5300,0.08331,39.222,1.97348
18.180,-2.4909,1.7598,0.07557,39.424,1.97577
18.200,-0.4666,-0.5521,0.12010,39.561,1.97805
18.220,-0.3373,-2.8213,0.13849,39.277,1.98034
18.240,-1.1469,-1.0096,0.12202,39.192,1.98261
18.260,-0.5448,-1.2221,0.12168,39.243,1.98488
18.280,-0.9348,-1.6347,0.11977,39.139,1.98715
18.300,-0.8099,0.2971,0.10195,39.100,1.98941
18.320,-1.4520,0.4809,0.13656,39.244,1.99167
18.340,-1.0894,-0.8440,0.12932,39.301,1.99392
18.360,-1.2601,-1.6207,0.14376,39.135,1.99617
18.380,-0.7972,-1.4864,0.15171,39.167,1.99841
18.400,-0.3913,-2.8401,0.12027,39.057,2.00065
18.420,-0.2870,-3.0354,0.09627,38.838,2.00288
18.440,-1.1015,-1.5864,0.11703,38.634,2.00511
18.460,-1.3741,-0.0330,0.11636,38.686,2.00733
18.480,-1.2054,-0.3553,0.09809,38.681,2.00955
18.500,-0.3473,-1.0246,0.08754,38.682,2.01176
18.520,-0.8040,-1.2864,0.12527,38.476,2.01397
18.540,-0.5617,-1.7472,0.11161,38.443,2.01617
18.560,-0.1881,-2.3644,0.11644,38.256,2.01836
18.580,-0.7033,-1.6655,0.09717,38.089,2.02056
18.600,0.3806,-2.5318,0.10292,38.059,2.02274
18.620,-0.4830,-0.9601,0.11201,37.810,2.02492
18.640,-1.8621,2.3973,0.09961,37.931,2.02710
18.660,-2.2945,4.0154,0.10088,38.379,2.02927
18.680,-0.5085,-1.3984,0.06451,38.461,2.03144
18.700,0.2574,-2.2244,0.13232,38.273,2.03360
18.720,0.5239,-2.6733,0.11327,38.225,2.03575
18.740,-0.5233,-2.8888,0.11971,37.945,2.03790
18.760,-1.3522,-1.2422,0.11420,37.877,2.04005
18.780,-1.6671,1.3215,0.09780,37.968,2.04219
18.800,-0.5831,-1.3894,0.13703,38.074,2.04432
18.820,-0.4161,-1.7954,0.12273,37.888,2.04645
18.840,-2.3986,0.7952,0.12124,37.942,2.04857
18.860,-2.4751,2.8385,0.10930,38.150,2.05069
18.880,-1.3753,1.1176,0.11392,38.466,2.05281
18.900,-0.3911,-2.1697,0.12246,38.340,2.05491
18.920,-0.9311,-0.7093,0.10682,38.185,2.05702
18.940,0.9890,-3.2085,0.10929,38.194,2.05911
18.960,0.9398,-4.3947,0.07762,37.667,2.06121
18.980,-0.0948,-1.8292,0.11841,37.572,2.06329
19.000,-0.0646,-0.9657,0.11692,37.523,2.06537
19.020,0.4723,-2.7501,0.12320,37.440,2.06745
19.040,-0.3699,-2.3991,0.07469,37.155,2.06952
19.060,-0.6240,-1.4101,0.11290,37.111,2.07158
19.080,-1.5992,-0.4743,0.10637,36.971,2.07364
19.100,-0.9779,-0.8391,0.09106,37.108,2.07570
19.120,-0.4962,-2.2207,0.09824,36.942,2.07775
19.140,0.0763,-0.5161,0.09744,36.891,2.07979
19.160,-0.8067,0.0724,0.09671,36.849,2.08183
19.180,0.2639,-2.4244,0.12141,36.952,2.08386
19.200,0.4419,-3.9288,0.11025,36.493,2.08588
19.220,-0.3767,0.1949,0.11858,36.432,2.08791
19.240,-1.4326,-0.4820,0.11853,36.569,2.08992
19.260,-0.4608,-2.8723,0.09829,36.504,2.09193
19.280,-0.3776,-1.2237,0.09791,36.229,2.09393
19.300,-1.8123,0.9885,0.08696,36.288,2.09593
19.320,-0.5320,-0.1196,0.11330,36.348,2.09793
19.340,-0.3200,-2.8284,0.08194,36.300,2.09991
19.360,0.6019,-2.3482,0.11860,36.091,2.10190
19.380,0.4723,-2.0846,0.12158,35.957,2.10387
19.400,-0.4028,-1.5258,0.10592,35.901,2.10584
19.420,0.9559,-2.9497,0.08389,35.743,2.10781
19.440,1.7112,-3.4550,0.11127,35.398,2.10977
19.460,-0.3426,-2.1238,0.09890,35.259,2.11172
19.480,-0.4997,-1.2470,0.12039,35.248,2.11367
19.500,-0.5078,-1.5737,0.08789,35.157,2.11561
19.520,-1.0617,-0.5475,0.11034,35.143,2.11755
19.540,-1.7114,0.3424,0.07739,35.158,2.11948
19.560,-2.3656,3.3817,0.11428,35.320,2.12140
19.580,-2.1859,1.6842,0.10774,35.716,2.12332
19.600,-0.6724,-1.5154,0.11521,35.848,2.12523
19.620,2.7365,-5.0046,0.08898,35.595,2.12714
19.640,1.7402,-3.7208,0.11279,35.117,2.12904
19.660,-0.8404,-0.5958,0.09309,35.100,2.13094
19.680,-0.6619,-1.5210,0.08526,35.113,2.13283
19.700,-0.5379,-0.7205,0.08145,34.904,2.13471
19.720,-0.4660,-1.0471,0.08883,34.953,2.13659
19.740,-0.5664,-1.6701,0.08918,34.815,2.13846
19.760,-0.0737,-0.4994,0.12974,34.887,2.14033
19.780,-1.2672,-0.6112,0.09881,34.829,2.14219
19.800,0.1665,-1.5469,0.09969,34.900,2.14405
19.820,0.7095,-2.9051,0.10690,34.586,2.14590
19.840,0.0393,-0.6232,0.10924,34.507,2.14774
19.860,0.2994,-2.7269,0.08752,34.481,2.14958
19.880,-1.1087,-0.9535,0.09288,34.224,2.15141
19.900,-1.6059,1.1116,0.12288,34.563,2.15323
19.920,-1.4494,0.8577,0.08694,34.466,2.15505
19.940,-0.9549,-0.0117,0.08719,34.716,2.15686
19.960,0.1681,-1.2400,0.06989,34.596,2.15867
19.980,-1.6813,0.3740,0.11555,34.555,2.16047
20.000,-1.3630,1.8525,0.10441,34.768,2.16227
20.020,-0.8811,0.4011,0.06759,34.823,2.16406
20.040,-1.0316,0.0776,0.07174,34.857,2.16584
20.060,0.5057,-1.5747,0.08466,34.905,2.16762
20.080,1.0958,-1.6850,0.12701,34.659,2.16939
20.100,-0.0034,-1.8224,0.07251,34.589,2.17116
20.120,-0.2507,-1.2001,0.14134,34.417,2.17291
20.140,-0.3491,-0.8173,0.09323,34.452,2.17467
20.160,0.4482,-0.9078,0.07382,34.355,2.17641
20.180,-0.3843,0.3362,0.06913,34.347,2.17816
20.200,-0.4516,-0.7263,0.10937,34.333,2.17989
20.220,0.2288,-0.2610,0.06157,34.326,2.18162
20.240,-0.2207,-1.5739,0.08534,34.320,2.18334
20.260,1.0064,-2.1099,0.10333,34.202,2.18506
20.280,0.3615,-2.9156,0.06317,34.013,2.18677
20.300,-0.8617,0.5488,0.09206,33.893,2.18847
20.320,-1.2852,1.3716,0.06606,34.086,2.19017
20.340,-1.5874,0.5221,0.10771,34.153,2.19186
20.360,-2.2989,1.0144,0.07189,34.259,2.19355
20.380,-0.7966,0.5825,0.09974,34.507,2.19523
20.400,0.4928,-0.4270,0.11589,34.295,2.19690
20.420,-0.8359,-1.5100,0.10032,34.387,2.19857
20.440,0.2120,-2.1971,0.08592,34.193,2.20023
20.460,-0.2974,-0.6034,0.08680,34.133,2.20188
20.480,-3.0118,1.3913,0.06990,34.220,2.20353
20.500,-0.4385,0.1998,0.08524,34.511,2.20517
20.520,0.1388,-1.2809,0.10662,34.370,2.20681
20.540,-0.5633,0.0932,0.10044,34.353,2.20844
20.560,-0.7001,-0.4296,0.06514,34.561,2.21006
20.580,0.6049,-1.6540,0.11363,34.293,2.21168
20.600,-0.8637,-0.4465,0.06680,34.358,2.21329
20.620,0.4482,-1.1149,0.06173,34.303,2.21489
20.640,-0.2985,-0.7299,0.08554,34.144,2.21649
20.660,-1.3650,0.2859,0.10269,34.170,2.21808
20.680,-0.9948,-0.9630,0.09114,34.278,2.21966
20.700,-1.2771,-0.8459,0.03996,34.113,2.22124
20.720,-0.9838,-0.0466,0.09392,34.182,2.22281
20.740,1.2200,-1.1048,0.06656,34.213,2.22438
20.760,-0.8913,-0.6874,0.08340,33.989,2.22594
20.780,-2.7453,1.9550,0.09619,34.269,2.22749
20.800,-0.5115,-0.4283,0.11231,34.465,2.22904
20.820,0.3112,-2.0056,0.07832,34.310,2.23058
20.840,-0.8730,-0.2818,0.07898,34.205,2.23211
20.860,-1.2377,-0.3807,0.08149,34.344,2.23364
20.880,0.9118,-3.2810,0.09616,34.254,2.23516
20.900,0.5276,-1.2576,0.05065,33.923,2.23667
20.920,-1.6673,0.9335,0.06478,34.112,2.23818
20.940,-1.9137,0.5280,0.03795,34.114,2.23968
20.960,-2.4135,1.7980,0.10647,34.457,2.24118
20.980,-1.2814,0.1362,0.07983,34.521,2.24267
21.000,-2.7739,2.9204,0.07085,34.556,2.24415
21.020,-2.2855,1.9326,0.10019,35.073,2.24562
21.040,-0.1150,-1.5645,0.06657,35.042,2.24709
21.060,0.2039,-0.9329,0.07666,34.871,2.24855
21.080,-1.2565,0.6817,0.09508,34.912,2.25001
21.100,-0.5942,-0.6114,0.06830,35.117,2.25146
21.120,1.1100,-2.6080,0.09774,34.907,2.25290
21.140,-0.1240,-1.4468,0.09704,34.743,2.25434
21.160,1.7751,-2.8885,0.07190,34.824,2.25577
21.180,2.4722,-4.4415,0.07606,34.249,2.25719
21.200,-0.4393,-0.7144,0.08602,34.052,2.25861
21.220,-0.4640,-0.5997,0.06376,34.195,2.26001
21.240,0.9994,-2.4371,0.04834,34.090,2.26142
21.260,-0.7314,-0.0792,0.07948,33.797,2.26281
21.280,-0.8917,-0.1704,0.06228,34.143,2.26420
21.300,0.7858,-2.8861,0.06094,33.890,2.26559
21.320,0.3269,-1.1223,0.06597,33.795,2.26696
21.340,0.3145,-0.7199,0.05350,33.728,2.26833
21.360,-0.5241,-0.4314,0.06302,33.743,2.26970
21.380,-0.3176,-1.3453,0.03178,33.677,2.27105
21.400,-0.4761,-1.4622,0.09173,33.662,2.27240
21.420,-0.8871,-0.3282,0.06996,33.673,2.27374
21.440,-0.6711,-0.5073,0.05717,33.657,2.27508
21.460,0.8404,-3.0905,0.05722,33.674,2.27641
21.480,0.4099,-2.4801,0.08136,33.245,2.27773
21.500,0.5082,-1.4986,0.06901,33.325,2.27905
21.520,2.8391,-4.1305,0.07244,33.072,2.28036
21.540,0.9340,-0.8928,0.03699,32.682,2.28166
21.560,-0.5368,-1.0169,0.04715,32.931,2.28296
21.580,0.8935,-2.2386,0.07962,32.699,2.28424
21.600,-0.0202,-1.8649,0.07080,32.732,2.28553
21.620,0.5122,-1.6398,0.10900,32.593,2.28680
21.640,0.0367,-1.8636,0.05680,32.471,2.28807
21.660,-0.0125,-0.8535,0.07957,32.558,2.28933
21.680,0.4453,-0.9090,0.03919,32.369,2.29059
21.700,-0.8759,0.2544,0.03481,32.436,2.29184
21.720,-2.0374,1.0840,0.05518,32.505,2.29308
21.740,-1.4933,0.6895,0.04940,32.714,2.29431
21.760,-1.3703,0.0632,0.04904,32.654,2.29554
21.780,-2.9261,2.1844,0.06962,32.842,2.29676
21.800,-2.7515,3.4535,0.06353,33.152,2.29797
21.820,-2.2189,1.4819,0.06264,33.437,2.29918
21.840,-0.6590,0.4500,0.08927,33.543,2.30038
21.860,-2.9003,2.9660,0.06894,33.624,2.30157
21.880,-4.6829,4.4403,0.03602,34.137,2.30276
21.900,-1.9344,0.9391,0.08081,34.538,2.30394
21.920,-1.2839,-0.1775,0.07668,34.400,2.30511
21.940,-1.2089,0.7525,0.05068,34.567,2.30628
21.960,-0.4060,0.2419,0.07768,34.675,2.30744
21.980,-0.6425,0.2070,0.07531,34.688,2.30859
22.000,-0.1974,0.2836,0.05036,34.716,2.30973
22.020,-1.5825,0.4505,0.05500,34.803,2.31087
22.040,0.1255,-3.0904,0.07893,34.972,2.31200
22.060,-0.3675,-0.5078,0.03074,35.011,2.31313
22.080,-1.8107,1.3034,0.05454,35.073,2.31424
22.100,-1.9783,1.5946,0.03349,35.323,2.31535
22.120,-1.2224,0.1457,0.02997,35.380,2.31646
22.140,-2.3366,1.5990,0.06581,35.478,2.31755
22.160,-2.6063,1.8030,0.11344,35.657,2.31864
22.180,-2.7864,1.5876,0.11195,35.951,2.31973
22.200,-1.2225,0.8184,0.10312,36.172,2.32080
22.220,-0.5830,0.2502,0.05547,36.239,2.32187
22.240,0.2314,-1.2817,0.02427,36.277,2.32293
22.260,0.7836,-1.2552,0.09462,36.057,2.32399
22.280,0.4248,-1.6383,0.04007,36.109,2.32503
22.300,2.0660,-2.0946,0.09083,35.923,2.32607
22.320,0.3585,-0.9568,0.05270,35.738,2.32711
22.340,-0.8331,-0.4195,0.05422,35.855,2.32813
22.360,-0.2195,0.0431,0.05967,35.837,2.32915
22.380,-0.3300,-0.4515,0.06027,35.922,2.33016
22.400,-1.1909,0.5007,0.06279,35.809,2.33117
22.420,-1.3723,0.7130,0.01505,36.026,2.33217
22.440,-1.2352,1.8028,0.06968,36.051,2.33316
22.460,-1.4964,1.7359,0.05012,36.265,2.33414
22.480,-1.0417,0.7068,0.06263,36.386,2.33512
22.500,-0.0073,-1.2724,0.05180,36.416,2.33609
22.520,0.3785,-1.6328,0.04396,36.330,2.33705
22.540,-1.0712,0.4070,0.06903,36.336,2.33800
22.560,-0.9751,1.3470,0.06304,36.485,2.33895
22.580,-0.4524,-0.3076,0.06233,36.610,2.33989
22.600,-0.6481,-0.8921,0.05677,36.395,2.34083
22.620,-1.1028,1.0645,0.03359,36.580,2.34175
22.640,-0.3651,-0.3311,0.05259,36.541,2.34267
22.660,-0.4199,-0.5503,0.02762,36.688,2.34359
22.680,-0.7685,-0.7032,0.06780,36.562,2.34449
22.700,0.1748,-0.2101,0.01663,36.677,2.34539
22.720,-0.1382,-1.1057,0.03576,36.534,2.34628
22.740,0.3924,0.0005,-0.01576,36.557,2.34717
22.760,0.6079,-1.1538,0.02279,36.504,2.34804
22.780,1.0878,-0.4667,0.04603,36.452,2.34891
22.800,0.8752,-0.9270,0.03720,36.350,2.34977
22.820,1.8487,-2.2417,0.03612,36.322,2.35063
22.840,0.7943,-1.1118,0.07797,36.009,2.35148
22.860,-1.9910,1.6232,0.04491,36.167,2.35232
22.880,-0.7438,-0.0946,0.03058,36.340,2.35315
22.900,1.3700,-2.2594,0.03372,36.260,2.35398
22.920,1.6284,-1.7218,0.05776,36.012,2.35480
22.940,-0.7172,0.4405,0.03591,35.896,2.35561
22.960,-1.9165,1.6133,0.03258,36.066,2.35642
22.980,0.0491,-0.5338,0.05678,36.179,2.35721
23.000,-1.2264,0.3629,0.04322,36.125,2.35800
23.020,0.3340,-0.1808,0.02460,36.286,2.35879
23.040,2.0582,-2.3856,0.05668,36.099,2.35956
23.060,-0.5042,-0.2424,0.04854,35.988,2.36033
23.080,0.0032,0.2909,0.04357,36.074,2.36109
23.100,0.3495,-0.1493,0.06063,36.057,2.36185
23.120,3.1357,-3.4625,0.07064,35.951,2.36259
23.140,1.2073,-1.9328,0.05826,35.498,2.36333
23.160,-0.5707,1.6202,0.05341,35.619,2.36406
23.180,0.7910,-1.8790,0.03586,35.677,2.36479
23.200,0.2989,-1.4903,0.02459,35.364,2.36551
23.220,-0.0085,0.0367,0.07248,35.472,2.36622
23.240,-0.7607,-0.6444,0.03303,35.469,2.36692
23.260,-1.7916,1.1393,0.03435,35.519,2.36762
23.280,-0.3558,0.8791,0.05462,35.690,2.36831
23.300,-0.2864,-0.0349,0.05662,35.556,2.36899
23.320,-0.9570,1.3198,0.04510,35.685,2.36966
23.340,-1.8214,0.4374,0.05214,35.808,2.37033
23.360,-2.5031,1.7206,0.05122,35.945,2.37099
23.380,-1.9194,1.4179,0.03795,36.239,2.37164
23.400,-0.5494,-0.6678,0.04284,36.358,2.37228
23.420,-0.8706,0.1478,0.06093,36.257,2.37292
23.440,-0.3607,0.6083,0.05002,36.581,2.37355
23.460,2.0394,-2.0328,0.04903,36.381,2.37417
23.480,1.9614,-1.2189,0.00802,36.298,2.37479
23.500,0.5114,-0.9482,0.03574,36.124,2.37540
23.520,-1.3270,0.7293,0.04486,36.106,2.37600
23.540,-2.6674,1.3800,0.00376,36.301,2.37659
23.560,-1.7499,1.8524,0.04923,36.534,2.37718
23.580,-0.0703,-0.0523,0.03279,36.618,2.37776
23.600,0.8148,-0.5952,0.03938,36.508,2.37833
23.620,0.4404,-0.6997,0.02231,36.408,2.37889
23.640,0.0609,0.2431,-0.00538,36.300,2.37945
23.660,-0.7746,0.3871,0.01501,36.471,2.38000
23.680,-0.3150,-0.1381,0.04038,36.308,2.38054
23.700,-0.5681,0.3848,0.00490,36.464,2.38107
23.720,-0.0081,-0.3690,0.04350,36.458,2.38160
23.740,-1.7398,1.2711,0.01990,36.489,2.38212
23.760,-0.6870,0.7187,0.01710,36.761,2.38263
23.780,-1.3351,0.1147,0.03429,36.675,2.38314
23.800,0.4408,0.1075,0.05051,36.975,2.38363
23.820,2.3278,-1.6146,0.03070,36.721,2.38412
23.840,1.7673,-2.4811,0.04619,36.572,2.38461
23.860,2.3434,-1.2614,-0.00045,36.288,2.38508
23.880,-0.0490,-0.6538,0.06092,36.154,2.38555
23.900,-1.1553,1.1157,0.03155,36.259,2.38601
23.920,-0.5668,1.1931,0.05355,36.392,2.38646
23.940,-0.9559,0.7867,0.04460,36.447,2.38691
23.960,1.2875,-0.7358,0.02395,36.495,2.38735
23.980,2.0746,-2.2418,0.06012,36.284,2.38778
24.000,1.2760,-0.8235,0.01360,36.045,2.38820
24.020,-1.4210,0.7158,0.03754,36.100,2.38862
24.040,-1.2071,0.5261,0.06810,36.342,2.38903
24.060,0.8602,-1.9521,-0.00358,36.277,2.38943
24.080,1.9854,-2.3403,0.02555,36.048,2.38982
24.100,2.0612,-1.4076,0.05921,35.772,2.39021
24.120,-1.3337,0.4069,0.06514,35.650,2.39059
24.140,-1.5263,1.0375,-0.00650,35.934,2.39096
24.160,0.9683,-0.4676,0.01594,35.897,2.39132
24.180,1.1810,-1.5958,0.02430,35.710,2.39168
24.200,0.7549,-0.9598,0.01235,35.600,2.39203
24.220,0.3786,-0.2430,0.00179,35.513,2.39237
24.240,0.7479,-0.3510,0.03989,35.561,2.39270
24.260,1.5481,-2.1262,0.05084,35.442,2.39303
24.280,1.1903,-0.7067,0.01172,35.282,2.39335
24.300,-0.0962,0.3428,0.03505,35.248,2.39366
24.320,-1.3127,0.1232,0.04010,35.332,2.39396
24.340,-1.1361,1.7209,0.04318,35.462,2.39426
24.360,-0.8071,-0.0951,0.01226,35.561,2.39455
24.380,1.9643,-2.5005,0.00506,35.478,2.39483
24.400,2.0771,-2.2889,0.01215,35.173,2.39511
24.420,0.9300,-0.2544,0.05306,35.029,2.39537
24.440,0.1861,-1.2784,0.01584,35.081,2.39563
24.460,0.5328,-0.7887,0.00198,34.841,2.39588
24.480,1.1926,-0.4672,-0.00583,34.886,2.39613
24.500,1.3444,-0.7582,0.02923,34.780,2.39637
24.520,1.5302,-2.7530,0.02497,34.675,2.39660
24.540,-1.5669,1.2230,-0.00132,34.877,2.39682
24.560,-2.0617,1.5678,0.02713,34.916,2.39703
24.580,-0.2202,0.3763,0.00180,35.163,2.39724
24.600,-0.1268,0.3350,0.00556,34.993,2.39744
24.620,-1.6707,1.6430,0.01051,35.197,2.39763
24.640,2.5279,-1.7193,-0.01828,35.361,2.39782
24.660,3.1713,-2.1163,0.00027,34.822,2.39799
24.680,-1.9614,0.9522,-0.01366,34.806,2.39816
24.700,-2.3416,2.0683,0.01678,35.083,2.39832
24.720,-1.1924,-0.7011,0.03723,35.223,2.39848
24.740,0.8420,-0.6817,0.04454,35.144,2.39863
24.760,1.2332,-1.0584,0.03419,35.102,2.39877
24.780,0.5093,-0.8202,0.03784,34.867,2.39890
24.800,1.6157,-1.7460,0.00684,34.905,2.39902
24.820,2.1575,-2.4032,0.02993,34.582,2.39914
24.840,0.3232,-0.0530,0.03687,34.399,2.39925
24.860,-0.7071,1.1415,-0.02981,34.600,2.39935
24.880,4.3793,1.7248,-0.00152,34.597,2.39945
24.900,0.1542,-0.7666,0.01014,34.531,2.39953
24.920,-2.0218,3.0617,0.06467,34.512,2.39961
24.940,-3.6333,2.7290,0.01717,35.006,2.39969
24.960,-0.6908,0.5550,-0.03653,35.192,2.39975
24.980,-0.0456,0.5733,-0.00757,35.053,2.39981
25.000,-1.8440,1.6594,0.03343,35.353,2.39986
25.020,0.0975,1.1702,0.02187,35.337,2.39990
25.040,-0.2435,0.5075,0.01950,35.470,2.39994
25.060,1.7371,-1.2333,0.01961,35.364,2.39996
25.080,-0.0008,-0.0122,0.02765,35.195,2.39998
25.100,-0.2925,-0.1341,-0.01863,35.340,2.39999
25.120,1.1184,-1.4705,-0.00096,35.201,2.40000
25.140,-0.2222,0.5035,-0.02171,35.061,2.40000
25.160,0.3966,-0.3284,0.00209,35.222,2.39999
25.180,2.9969,-2.0240,-0.04246,35.013,2.39997
25.200,0.5478,-0.1695,0.01940,34.758,2.39994
25.220,1.3772,-1.0063,0.00954,34.856,2.39991
25.240,2.4556,-2.7044,0.02732,34.503,2.39987
25.260,1.0627,-1.3474,0.06071,34.368,2.39982
25.280,1.2364,-1.9781,0.00803,34.302,2.39977
25.300,1.7884,-2.4832,-0.01631,34.060,2.39971
25.320,0.3021,-0.7104,0.00606,33.859,2.39963
25.340,-0.8199,0.9981,0.02526,33.978,2.39956
25.360,1.6422,-0.9148,0.01485,34.031,2.39947
25.380,1.0636,-0.5535,0.00562,33.861,2.39938
25.400,-1.9659,1.0042,-0.04347,33.956,2.39928
25.420,-0.6506,-0.1844,0.01670,34.230,2.39917
25.440,0.5289,-1.1085,-0.01666,33.999,2.39906
25.460,-1.4087,1.7743,-0.03233,34.010,2.39893
25.480,-1.8080,2.6810,0.00423,34.366,2.39880
25.500,-0.3849,1.1796,0.01943,34.476,2.39867
25.520,-0.5712,1.1614,-0.01634,34.622,2.39852
25.540,1.1751,-1.5825,-0.01614,34.586,2.39837
25.560,-0.3516,0.7392,-0.02713,34.442,2.39821
25.580,-0.9778,1.4274,0.00906,34.648,2.39804
25.600,-0.0742,0.9623,-0.03234,34.766,2.39786
25.620,0.2764,0.0962,-0.02809,34.757,2.39768
25.640,2.2158,-1.6064,-0.02228,34.673,2.39749
25.660,1.1793,-1.6453,0.00186,34.358,2.39729
25.680,0.6545,-0.2989,0.02206,34.386,2.39709
25.700,0.3106,-0.2893,-0.01967,34.262,2.39688
25.720,-0.2946,0.2346,-0.02529,34.238,2.39666
25.740,-0.7679,1.5739,-0.01352,34.359,2.39643
25.760,-0.7804,1.7462,-0.00087,34.506,2.39619
25.780,-3.0961,2.6449,0.00889,34.636,2.39595
25.800,-2.9861,2.5417,-0.00228,35.042,2.39570
25.820,-0.7823,0.1506,-0.03641,35.251,2.39544
25.840,2.0112,-1.3375,-0.03347,35.117,2.39518
25.860,-1.0805,1.7146,-0.02614,34.970,2.39491
25.880,-1.8369,1.4252,-0.01072,35.389,2.39463
25.900,0.4304,-0.8626,-0.00005,35.269,2.39434
25.920,-1.1855,2.0134,0.01739,35.262,2.39405
25.940,-3.6977,3.3024,-0.01618,35.576,2.39374
25.960,-1.3382,1.9426,-0.00307,35.884,2.39343
25.980,0.1321,-0.2922,0.01000,35.875,2.39312
26.000,1.1726,-1.5935,-0.03677,35.918,2.39279
26.020,2.3853,-1.8409,-0.02346,35.624,2.39246
26.040,1.3669,-0.9115,-0.00096,35.460,2.39212
26.060,0.7380,-1.1891,-0.01232,35.395,2.39177
26.080,-0.0287,-0.0949,-0.07148,35.393,2.39142
26.100,0.1041,-0.3666,-0.04180,35.335,2.39106
26.120,-1.6469,2.4895,-0.01881,35.363,2.39069
26.140,-3.2933,2.6832,-0.01687,35.757,2.39031
26.160,-0.1320,0.9577,-0.03306,35.841,2.38993
26.180,0.4361,-0.0836,0.00518,35.897,2.38954
26.200,1.1011,0.3346,-0.02178,35.897,2.38914
26.220,-1.7215,0.1962,0.01276,35.866,2.38873
26.240,-0.2116,-0.0682,-0.02577,36.088,2.38832
26.260,0.9543,-1.5394,-0.04498,35.909,2.38789
26.280,1.8905,-2.0217,-0.02576,35.887,2.38747
26.300,1.3853,-1.1164,-0.00953,35.690,2.38703
26.320,0.4241,0.3835,-0.04325,35.705,2.38659
26.340,-0.4469,0.8536,0.04082,35.727,2.38614
26.360,-2.3280,2.3898,-0.05576,35.892,2.38568
26.380,-1.3123,0.9462,-0.01292,36.108,2.38521
26.400,-5.3252,1.0701,0.02024,36.227,2.38474
26.420,-2.5209,2.5336,-0.01089,36.519,2.38426
26.440,-1.4258,1.8991,-0.03288,36.805,2.38377
26.460,-0.4714,0.4664,-0.06262,36.862,2.38327
26.480,1.7408,-0.9855,-0.02313,36.929,2.38277
26.500,1.9818,-1.2002,0.00767,36.581,2.38226
26.520,-0.3656,0.6795,-0.04656,36.638,2.38174
26.540,1.9120,-2.2894,-0.00877,36.637,2.38122
26.560,2.7386,-1.6579,0.00762,36.333,2.38069
26.580,-0.0782,0.2672,-0.00513,36.256,2.38015
26.600,0.5881,-0.0859,-0.00329,36.428,2.37960
26.620,0.1903,-0.1264,-0.02310,36.205,2.37904
26.640,-1.8686,2.0239,-0.01169,36.438,2.37848
26.660,0.5996,0.1134,-0.04312,36.523,2.37791
26.680,0.4231,0.2401,-0.01589,36.482,2.37734
26.700,-0.3475,0.9016,-0.02777,36.457,2.37675
26.720,0.6812,-0.4214,-0.05573,36.606,2.37616
26.740,-0.4285,0.7689,-0.02201,36.348,2.37556
26.760,-1.0767,0.9294,-0.07244,36.716,2.37496
26.780,1.4063,-1.7387,-0.03171,36.569,2.37434
26.800,0.2339,0.0361,-0.04111,36.432,2.37372
26.820,-0.9875,2.3106,-0.02990,36.651,2.37309
26.840,-1.5257,1.6953,-0.04495,36.794,2.37246
26.860,-2.3094,2.3634,-0.00931,37.032,2.37182
26.880,-1.0174,1.2480,-0.02728,37.220,2.37117
26.900,1.9826,-0.4746,-0.02732,37.288,2.37051
26.920,1.9824,-1.1212,-0.03725,37.058,2.36984
26.940,0.4598,0.0990,-0.01706,36.973,2.36917
26.960,-0.1948,0.9354,-0.00850,37.009,2.36849
26.980,2.3595,-2.1113,-0.02983,37.006,2.36781
27.000,1.1054,-1.2830,-0.04609,36.636,2.36711
27.020,-1.6619,3.1342,-0.03881,36.824,2.36641
27.040,-2.1092,2.6437,-0.02359,37.136,2.36570
27.060,0.1181,0.4209,-0.06502,37.400,2.36499
27.080,0.8629,0.7065,-0.03297,37.216,2.36426
27.100,2.0358,-0.8811,-0.03317,37.295,2.36353
27.120,0.8340,-1.2447,-0.03681,36.912,2.36280
27.140,0.4482,0.3343,-0.00445,37.216,2.36205
27.160,2.2144,-0.9811,-0.03631,36.867,2.36130
27.180,-1.1074,0.7914,-0.04359,36.941,2.36054
27.200,-2.0605,2.8251,-0.03959,37.150,2.35977
27.220,-1.7865,2.1204,-0.03895,37.383,2.35900
27.240,1.2088,-1.1029,-0.06746,37.445,2.35822
27.260,1.0775,-0.9416,0.00639,37.188,2.35743
27.280,0.9733,0.2016,-0.01811,37.170,2.35663
27.300,-0.0663,-0.0272,-0.03626,37.121,2.35583
27.320,-1.2154,1.3186,-0.05155,37.188,2.35502
27.340,-2.0095,2.0404,-0.05917,37.366,2.35420
27.360,-1.9863,3.0110,-0.03831,37.485,2.35338
27.380,-2.2110,2.6626,-0.05298,37.867,2.35255
27.400,0.4054,0.0036,-0.04700,37.986,2.35171
27.420,-1.0928,1.0159,-0.01463,37.916,2.35086
27.440,-0.3743,1.6094,-0.04520,38.209,2.35001
27.460,0.7006,-0.0592,-0.03922,38.152,2.34915
27.480,0.6295,1.2628,-0.01728,38.203,2.34828
27.500,2.0495,-1.6427,-0.04960,38.236,2.34741
27.520,2.6008,-2.0679,-0.03795,37.823,2.34652
27.540,-0.4360,-0.5004,-0.04708,37.873,2.34564
27.560,0.3611,0.3844,-0.00524,37.925,2.34474
27.580,0.6037,0.2420,-0.07385,37.887,2.34384
27.600,2.1927,-1.0745,-0.04209,37.862,2.34293
27.620,1.6183,-0.8899,-0.04331,37.630,2.34201
27.640,-0.1962,1.4164,-0.07443,37.645,2.34108
27.660,-0.5902,1.2278,-0.03575,37.916,2.34015
27.680,1.0858,-0.7336,-0.01362,37.884,2.33921
27.700,1.3633,-0.3025,-0.02071,37.790,2.33827
27.720,-0.6989,1.4098,-0.02295,37.681,2.33731
27.740,-0.4453,1.0284,-0.04262,38.044,2.33635
27.760,0.4354,0.0170,-0.07377,37.800,2.33538
27.780,-0.6170,2.1163,-0.03545,37.952,2.33441
27.800,-1.4708,2.0683,-0.07053,37.972,2.33343
27.820,-2.5602,3.2393,-0.04666,38.318,2.33244
27.840,0.2578,1.9182,-0.02621,38.554,2.33144
27.860,1.7725,-0.6898,-0.05872,38.538,2.33044
27.880,0.4238,0.7446,-0.05958,38.260,2.32943
27.900,-1.5282,2.9311,-0.07302,38.518,2.32841
27.920,0.5101,0.0615,-0.06251,38.780,2.32739
27.940,0.4747,-0.2370,-0.07106,38.581,2.32636
27.960,0.8486,-0.7427,-0.03746,38.715,2.32532
27.980,2.2166,-1.7434,-0.03116,38.571,2.32427
28.000,2.1685,-0.9783,-0.10655,38.431,2.32322
28.020,0.9887,0.0890,-0.04156,38.142,2.32216
28.040,-0.2724,1.2436,-0.08114,38.310,2.32109
28.060,0.1835,0.7932,-0.02506,38.358,2.32002
28.080,-1.4748,1.7597,-0.04642,38.447,2.31894
28.100,-0.8400,1.9362,-0.03778,38.709,2.31785
28.120,-0.3567,1.6543,-0.04090,38.829,2.31676
28.140,-1.0037,1.9281,-0.04481,38.934,2.31566
28.160,0.6652,0.0201,-0.05071,39.069,2.31455
28.180,2.1619,-0.1407,-0.03292,38.878,2.31343
28.200,1.7040,-1.7715,-0.03935,38.872,2.31231
28.220,1.5210,-1.1808,-0.04001,38.654,2.31118
28.240,0.8417,0.2112,-0.01745,38.492,2.31005
28.260,0.2951,1.5397,-0.07785,38.476,2.30890
28.280,-2.1309,2.9759,-0.04744,38.667,2.30775
28.300,-0.2339,1.1082,-0.06794,39.037,2.30660
28.320,0.8176,-0.9796,-0.07101,38.842,2.30543
28.340,1.0525,0.1053,-0.05306,38.873,2.30426
28.360,0.0989,0.0968,-0.03183,38.861,2.30308
28.380,-0.6376,1.5259,-0.07789,38.956,2.30190
28.400,-0.3027,1.1042,-0.06088,39.060,2.30071
28.420,2.2446,-0.0072,-0.07792,39.126,2.29951
28.440,1.0288,0.1157,-0.08712,38.951,2.29830
28.460,-0.3746,1.6961,-0.05308,39.023,2.29709
28.480,-0.3400,0.4077,-0.04724,39.183,2.29587
28.500,-0.9105,1.4085,-0.01849,39.091,2.29465
28.520,-1.6295,2.1144,-0.07573,39.447,2.29342
28.540,1.6610,-0.8141,-0.07000,39.405,2.29218
28.560,0.5704,0.2762,-0.07426,39.290,2.29093
28.580,0.3555,0.7020,-0.03495,39.344,2.28968
28.600,1.9546,-1.1317,-0.08010,39.297,2.28842
28.620,1.8609,-0.8430,-0.07336,39.051,2.28715
28.640,0.1134,1.8071,-0.06397,39.047,2.28588
28.660,-2.3540,4.0737,-0.05359,39.334,2.28460
28.680,-0.1645,1.6119,-0.05009,39.694,2.28331
28.700,0.0314,0.7052,-0.06423,39.592,2.28202
28.720,-0.6472,2.3340,-0.07137,39.755,2.28071
28.740,-0.0234,0.4555,-0.04505,39.779,2.27941
28.760,-0.6776,1.8166,-0.05297,39.830,2.27809
28.780,-1.0048,2.6992,-0.07699,40.058,2.27677
28.800,0.2235,1.2169,-0.02783,40.212,2.27545
28.820,1.6138,-0.1760,-0.03122,40.239,2.27411
28.840,2.0529,-1.4397,-0.06377,40.072,2.27277
28.860,1.6994,-0.5101,-0.08104,39.870,2.27142
28.880,0.8495,0.9674,-0.03443,39.858,2.27007
28.900,-0.5685,2.0311,-0.03496,39.917,2.26871
28.920,-0.6653,2.0247,-0.06070,40.007,2.26734
28.940,-1.2784,2.4645,-0.07659,40.148,2.26596
28.960,2.0230,-0.4885,-0.03532,40.324,2.26458
28.980,1.8352,-0.8725,-0.08269,39.892,2.26320
29.000,0.4131,1.0582,-0.03854,40.054,2.26180
29.020,0.8038,0.2746,-0.07390,39.866,2.26040
29.040,-0.6388,1.8167,-0.07151,40.066,2.25899
29.060,0.2896,1.6759,-0.06153,40.127,2.25758
29.080,0.5156,0.5696,-0.05782,40.240,2.25616
29.100,1.0058,-0.0069,-0.11862,40.143,2.25473
29.120,1.3635,-1.2537,-0.06032,40.194,2.25330
29.140,1.4640,-0.2991,-0.07309,39.858,2.25186
29.160,-0.0763,0.7626,-0.08715,40.055,2.25041
29.180,2.2902,-2.6410,-0.07600,39.995,2.24895
29.200,1.1530,-1.1375,-0.10539,39.529,2.24749
29.220,-1.8450,2.8494,-0.07295,39.720,2.24603
29.240,0.3768,1.5952,-0.08718,40.022,2.24455
29.260,-0.4140,0.5792,-0.04741,39.865,2.24307
29.280,0.8074,1.1893,-0.07596,40.083,2.24159
29.300,2.9685,-3.0903,-0.04881,39.948,2.24009
29.320,2.8259,-2.0535,-0.07864,39.540,2.23859
29.340,1.0276,1.0931,-0.09235,39.476,2.23709
29.360,0.0339,0.6756,-0.02355,39.534,2.23558
29.380,0.5151,1.3964,-0.08532,39.558,2.23406
29.400,0.3478,1.5641,-0.10563,39.577,2.23253
29.420,0.0884,1.1534,-0.10474,39.630,2.23100
29.440,1.0629,0.4239,-0.07800,39.669,2.22946
29.460,1.3972,-0.0259,-0.05639,39.630,2.22792
29.480,1.6900,-1.2229,-0.10453,39.522,2.22637
29.500,1.5425,-0.0490,-0.04311,39.474,2.22481
29.520,1.3888,0.2432,-0.04107,39.411,2.22324
29.540,2.1071,-0.7614,0.00523,39.356,2.22167
29.560,1.5294,-1.2539,-0.03991,39.158,2.22010
29.580,0.5609,0.1882,-0.05745,39.060,2.21851
29.600,1.0269,0.7131,-0.06629,39.075,2.21692
29.620,0.4085,0.5611,-0.03420,39.131,2.21533
29.640,1.1941,0.4361,-0.08281,39.119,2.21373
29.660,0.9290,0.7858,-0.07226,39.086,2.21212
29.680,-0.1026,1.7212,-0.05859,39.182,2.21050
29.700,-0.0272,1.3916,-0.12077,39.329,2.20888
29.720,1.0739,-0.0627,-0.09288,39.451,2.20725
29.740,1.8777,-2.1562,-0.07812,39.136,2.20562
29.760,0.1224,0.4409,-0.08919,39.054,2.20398
29.780,-0.3702,1.7990,-0.06365,39.181,2.20233
29.800,-1.1418,1.6669,-0.04353,39.274,2.20068
29.820,-0.1066,0.9597,-0.06342,39.397,2.19902
29.840,0.4429,-0.2560,-0.07872,39.453,2.19736
29.860,0.9236,0.7833,-0.06690,39.300,2.19569
29.880,1.0676,0.8433,-0.09760,39.520,2.19401
29.900,1.2687,-0.1901,-0.07206,39.275,2.19232
29.920,-0.6753,1.1120,-0.11711,39.452,2.19063
29.940,1.7280,-0.9277,-0.05964,39.449,2.18894
29.960,2.7416,-1.6155,-0.09980,39.184,2.18724
29.980,-0.0551,0.9563,-0.06947,39.113,2.18553
30.000,0.7149,1.3307,-0.07998,39.330,2.18381
30.020,1.7536,-1.3976,-0.05394,39.224,2.18209
30.040,1.8318,-1.0438,-0.10586,39.006,2.18036
30.060,2.6691,-0.1934,-0.08687,38.954,2.17863
30.080,2.5622,-1.5999,-0.06549,38.807,2.17689
30.100,1.9277,-0.5112,-0.06764,38.581,2.17515
30.120,-0.0682,1.1532,-0.10258,38.660,2.17340
30.140,0.0422,0.2620,-0.06987,38.804,2.17164
30.160,0.2752,0.2894,-0.05677,38.705,2.16987
30.180,1.0740,0.4504,-0.09719,38.799,2.16811
30.200,1.3041,-0.5188,-0.06379,38.729,2.16633
30.220,1.4114,0.3654,-0.11120,38.711,2.16455
30.240,-0.4661,2.0408,-0.09448,38.733,2.16276
30.260,-0.3927,1.9296,-0.04141,39.002,2.16097
30.280,0.9243,-0.2502,-0.08478,39.094,2.15917
30.300,1.4673,-0.6191,-0.10851,38.914,2.15736
30.320,-0.1677,0.1621,-0.06827,39.007,2.15555
30.340,1.3603,0.2242,-0.07630,38.967,2.15373
30.360,1.4153,-0.6270,-0.06538,38.883,2.15191
30.380,1.4174,-1.2296,-0.09486,38.732,2.15008
30.400,1.3433,-0.0513,-0.08731,38.727,2.14824
30.420,1.3508,-0.0301,-0.10660,38.716,2.14640
30.440,2.3497,-1.5763,-0.08057,38.644,2.14455
30.460,2.6604,-2.7720,-0.08882,38.393,2.14270
30.480,0.8794,-1.1794,-0.07639,38.086,2.14084
30.500,0.2272,0.9760,-0.11016,38.109,2.13898
30.520,-0.5873,2.3575,-0.07111,38.141,2.13710
30.540,-0.9127,2.5818,-0.08305,38.534,2.13523
30.560,0.4919,1.5160,-0.09680,38.502,2.13335
30.580,-1.2990,2.3307,-0.07652,38.686,2.13146
30.600,0.1023,1.7842,-0.09465,38.901,2.12956
30.620,1.4453,0.9909,-0.07451,38.890,2.12766
30.640,1.3592,-0.0812,-0.10290,38.904,2.12576
30.660,-0.2901,2.0572,-0.09754,38.826,2.12384
30.680,1.0298,0.7651,-0.09926,39.146,2.12193
30.700,1.8969,-0.0521,-0.10618,38.874,2.12000
30.720,-0.1807,2.3427,-0.08319,38.867,2.11808
30.740,0.5692,1.7599,-0.07747,39.116,2.11614
30.760,1.5428,-0.9555,-0.10967,39.097,2.11420
30.780,0.3902,0.3421,-0.04345,38.994,2.11225
30.800,0.2155,1.2190,-0.09453,39.036,2.11030
30.820,0.8819,2.3956,-0.12871,39.131,2.10834
30.840,0.3830,2.1473,-0.11928,39.233,2.10638
30.860,1.1132,2.2144,-0.11728,39.284,2.10441
30.880,0.2104,2.5059,-0.09026,39.419,2.10244
30.900,1.4678,-0.1562,-0.10917,39.589,2.10046
30.920,1.2606,-0.6641,-0.10340,39.390,2.09847
30.940,0.4960,1.0429,-0.08246,39.322,2.09648
30.960,0.7531,2.5354,-0.08349,39.478,2.09448
30.980,1.1036,1.1815,-0.10947,39.566,2.09248
31.000,0.5266,0.8555,-0.11319,39.608,2.09047
31.020,-0.2528,1.5650,-0.07285,39.729,2.08846
31.040,0.6038,0.1779,-0.10245,39.901,2.08644
31.060,2.1957,-1.3675,-0.13376,39.746,2.08441
31.080,2.4375,-2.6696,-0.06809,39.526,2.08238
31.100,0.2064,1.2724,-0.10028,39.318,2.08035
31.120,0.1494,1.1069,-0.09607,39.652,2.07831
31.140,2.0417,-0.3534,-0.11479,39.463,2.07626
31.160,1.7960,0.0760,-0.10680,39.420,2.07421
31.180,0.6992,1.0519,-0.09456,39.387,2.07215
31.200,1.5106,-0.2131,-0.10239,39.573,2.07009
31.220,2.6528,-0.9316,-0.07373,39.260,2.06802
31.240,-0.1295,1.9429,-0.07759,39.253,2.06594
31.260,-0.3879,3.1798,-0.13428,39.471,2.06386
31.280,0.0056,1.5725,-0.11827,39.672,2.06178
31.300,0.7719,1.0699,-0.10286,39.746,2.05969
31.320,-0.1817,2.2333,-0.10747,39.699,2.05759
31.340,1.4267,0.9883,-0.07890,40.015,2.05549
31.360,1.7241,-0.3622,-0.06417,39.714,2.05338
31.380,0.1346,1.9313,-0.12252,39.891,2.05127
31.400,1.0754,2.2964,-0.10284,39.982,2.04916
31.420,0.0122,1.0051,-0.12805,40.089,2.04703
31.440,0.7627,0.7154,-0.10625,40.136,2.04491
31.460,0.0929,1.8589,-0.08329,40.173,2.04277
31.480,1.9111,-0.6497,-0.06600,40.341,2.04063
31.500,2.3980,-2.2102,-0.08797,40.133,2.03849
31.520,1.8520,-0.1721,-0.10022,39.909,2.03634
31.540,0.8585,0.2907,-0.11066,39.938,2.03419
31.560,1.4440,0.1257,-0.10301,39.948,2.03203
31.580,0.3797,2.3001,-0.10302,39.977,2.02987
31.600,0.7717,2.1279,-0.09168,40.263,2.02770
31.620,1.1127,0.4769,-0.07802,40.159,2.02552
31.640,0.8705,1.1110,-0.11667,40.294,2.02334
31.660,-0.1325,3.9700,-0.14249,40.363,2.02116
31.680,0.8864,1.5193,-0.09453,40.789,2.01897
31.700,1.6478,-1.6193,-0.08776,40.537,2.01677
31.720,2.1941,0.4645,-0.12271,40.439,2.01457
31.740,1.1484,1.3663,-0.11061,40.357,2.01236
31.760,1.1856,0.3513,-0.08616,40.594,2.01015
31.780,0.6294,1.7999,-0.11487,40.447,2.00794
31.800,-0.5064,4.7376,-0.09796,40.745,2.00572
31.820,-0.5178,3.3439,-0.08510,41.033,2.00349
31.840,0.3392,2.2225,-0.08774,41.189,2.00126
31.860,2.5944,-0.6080,-0.11725,41.267,1.99903
31.880,1.8819,-0.8239,-0.06646,40.987,1.99678
31.900,1.6363,-0.1945,-0.10855,41.020,1.99454
31.920,2.2532,-2.2113,-0.09763,40.762,1.99229
31.940,1.2523,0.2314,-0.11703,40.697,1.99003
31.960,0.8501,0.5613,-0.07930,40.734,1.98777
31.980,1.1021,1.6775,-0.06928,40.678,1.98551
32.000,0.6470,0.7747,-0.10167,40.849,1.98324
32.020,2.0930,-1.3979,-0.06747,40.826,1.98096
32.040,3.0036,-2.6306,-0.11527,40.547,1.97868
32.060,2.4893,-2.5949,-0.11332,40.356,1.97640
32.080,2.5489,-0.8011,-0.13822,40.127,1.97411
32.100,0.9961,1.8333,-0.07916,40.070,1.97181
32.120,0.1214,2.9884,-0.12346,40.295,1.96951
32.140,0.5341,1.8730,-0.06861,40.386,1.96721
32.160,1.7372,-0.5039,-0.11680,40.447,1.96490
32.180,0.3289,1.3027,-0.08003,40.216,1.96258
32.200,0.3290,2.5397,-0.08989,40.642,1.96027
32.220,0.7479,3.3154,-0.13167,40.637,1.95794
32.240,0.4626,2.2619,-0.11894,41.072,1.95561
32.260,1.9072,-1.5919,-0.09791,40.916,1.95328
32.280,1.1153,2.8351,-0.09115,40.814,1.95094
32.300,0.9437,2.0242,-0.09156,41.282,1.94860
32.320,1.8331,-0.1477,-0.11707,41.088,1.94625
32.340,1.6539,1.4621,-0.13529,41.163,1.94390
32.360,1.8972,-0.8260,-0.10910,41.103,1.94155
32.380,1.3368,2.2667,-0.13021,40.956,1.93918
32.400,1.1715,2.0342,-0.15259,41.345,1.93682
32.420,0.4326,1.0431,-0.13097,41.164,1.93445
32.440,0.7482,2.6499,-0.10510,41.326,1.93207
32.460,1.4543,0.1427,-0.12056,41.525,1.92969
32.480,1.9976,-3.1226,-0.13202,41.343,1.92731
32.500,3.3797,-4.2868,-0.11850,41.001,1.92492
32.520,2.4161,-2.2545,-0.11531,40.681,1.92253
32.540,1.3488,-0.2068,-0.08903,40.537,1.92013
32.560,0.2612,0.4889,-0.12570,40.577,1.91773
32.580,1.2610,0.8253,-0.09346,40.637,1.91532
32.600,1.4602,-0.5573,-0.10214,40.603,1.91291
32.620,1.2272,1.1074,-0.12678,40.584,1.91050
32.640,0.7230,2.6938,-0.13453,40.759,1.90808
32.660,0.8722,1.1205,-0.11743,40.898,1.90565
32.680,1.1468,0.4476,-0.11896,40.966,1.90322
32.700,1.1729,0.1859,-0.12090,40.855,1.90079
32.720,1.2034,0.7067,-0.14623,40.995,1.89835
32.740,0.9210,-0.0473,-0.13299,41.027,1.89591
32.760,1.6921,-0.8785,-0.13575,40.893,1.89347
32.780,1.1173,1.0247,-0.11820,40.789,1.89102
32.800,0.1656,4.1883,-0.12334,41.010,1.88856
32.820,1.1487,1.4890,-0.12594,41.342,1.88610
32.840,3.1207,-2.4302,-0.10835,41.247,1.88364
32.860,1.8356,-0.6017,-0.11396,40.873,1.88117
32.880,1.4143,-0.4196,-0.14643,40.979,1.87870
32.900,1.3029,-0.2348,-0.11710,40.816,1.87622
32.920,0.4097,0.6034,-0.11115,40.948,1.87374
32.940,1.2039,3.1569,-0.09773,40.880,1.87126
32.960,0.6846,2.8463,-0.12536,41.282,1.86877
32.980,1.3356,1.5726,-0.11670,41.302,1.86628
33.000,1.5501,-0.2027,-0.10214,41.464,1.86378
33.020,3.2071,-4.7319,-0.13908,41.246,1.86128
33.040,2.2806,-3.1189,-0.13737,40.738,1.85877
33.060,1.5587,1.0990,-0.14262,40.762,1.85626
33.080,0.8329,1.3716,-0.11199,40.810,1.85375
33.100,1.8540,1.3594,-0.10261,40.939,1.85123
33.120,1.5983,-2.0965,-0.10936,40.840,1.84871
33.140,2.6868,-2.4852,-0.12082,40.607,1.84618
33.160,1.8828,-0.5169,-0.15197,40.319,1.84365
33.180,1.3342,1.4899,-0.09909,40.418,1.84112
33.200,1.3771,0.5823,-0.09863,40.546,1.83858
33.220,1.6100,-1.0317,-0.12624,40.389,1.83604
33.240,1.6241,-1.2918,-0.13530,40.294,1.83349
33.260,2.1571,-2.9267,-0.12655,40.163,1.83094
33.280,1.9105,-1.3827,-0.13716,39.821,1.82839
33.300,0.7152,1.6171,-0.12083,39.857,1.82583
33.320,1.1141,1.3452,-0.12293,40.010,1.82327
33.340,1.1990,-1.4399,-0.11887,39.969,1.82070
33.360,1.7717,-1.1167,-0.11936,39.713,1.81813
33.380,1.0079,1.5554,-0.14187,39.678,1.81556
33.400,1.1758,4.1927,-0.14667,39.923,1.81298
33.420,1.3722,3.7665,-0.12771,40.307,1.81040
33.440,2.1002,-0.5885,-0.12036,40.355,1.80782
33.460,2.5662,-2.5282,-0.13528,40.213,1.80523
33.480,2.4514,-4.0431,-0.17443,39.856,1.80264
33.500,1.2342,-1.9730,-0.12796,39.577,1.80004
33.520,1.2726,0.7549,-0.12452,39.561,1.79744
33.540,1.1498,1.1465,-0.10309,39.602,1.79484
33.560,1.1610,0.8705,-0.11642,39.648,1.79223
33.580,2.2998,-2.3289,-0.11655,39.601,1.78962
33.600,2.1824,-2.6746,-0.12725,39.323,1.78700
33.620,1.5097,-1.5635,-0.12480,39.039,1.78439
33.640,0.9610,-0.6429,-0.13959,39.066,1.78176
33.660,1.8744,0.8702,-0.11121,38.917,1.77914
33.680,1.8722,0.2605,-0.10777,39.152,1.77651
33.700,1.3792,0.3762,-0.06552,38.890,1.77388
33.720,1.3703,1.3941,-0.13946,39.193,1.77124
33.740,1.5278,-0.4468,-0.06321,39.073,1.76860
33.760,1.6502,1.3732,-0.14171,39.114,1.76596
33.780,1.6260,-0.4961,-0.12493,39.154,1.76331
33.800,1.8419,-3.0508,-0.13930,39.092,1.76066
33.820,1.7964,-2.9259,-0.11504,38.729,1.75800
33.840,0.7167,1.4488,-0.11397,38.643,1.75535
33.860,1.2665,0.0161,-0.13767,38.917,1.75269
33.880,2.6146,-3.9245,-0.14928,38.686,1.75002
33.900,1.2002,-2.5308,-0.14148,38.354,1.74735
33.920,1.7732,-0.2684,-0.11813,38.315,1.74468
33.940,1.9946,-1.7200,-0.18667,38.241,1.74201
33.960,1.6321,-1.9204,-0.15910,38.008,1.73933
33.980,1.0676,-1.5562,-0.12604,37.873,1.73665
34.000,1.3813,-1.3697,-0.10273,37.786,1.73396
34.020,1.2531,0.1883,-0.12004,37.712,1.73127
34.040,1.5020,1.0252,-0.13193,37.741,1.72858
34.060,1.4396,1.0326,-0.12011,37.868,1.72589
34.080,1.2060,0.8096,-0.12814,37.938,1.72319
34.100,1.3226,2.6888,-0.12604,37.999,1.72049
34.120,0.6369,2.8278,-0.15574,38.302,1.71778
34.140,1.8130,-2.2445,-0.15227,38.499,1.71507
34.160,2.4993,-3.4445,-0.14926,37.975,1.71236
34.180,1.6698,-2.4391,-0.12457,37.909,1.70965
34.200,1.8148,-2.3628,-0.14623,37.626,1.70693
34.220,0.9063,0.8210,-0.12659,37.502,1.70421
34.240,1.2914,0.9918,-0.14373,37.640,1.70149
34.260,1.7562,-0.6180,-0.14822,37.604,1.69876
34.280,1.1400,1.2475,-0.12683,37.527,1.69603
34.300,2.0765,0.7942,-0.14919,37.764,1.69330
34.320,1.9703,-1.7189,-0.12445,37.493,1.69056
34.340,1.4343,0.9427,-0.12923,37.476,1.68782
34.360,1.7690,1.2297,-0.11920,37.575,1.68508
34.380,2.1224,-1.4445,-0.12357,37.580,1.68233
34.400,2.1333,-0.9935,-0.14265,37.370,1.67958
34.420,0.9754,0.3076,-0.11665,37.366,1.67683
34.440,1.0485,1.7399,-0.13435,37.511,1.67408
34.460,1.4079,1.1985,-0.10122,37.576,1.67132
34.480,1.1178,0.9527,-0.13826,37.633,1.66856
34.500,2.2256,0.3971,-0.14064,37.688,1.66580
34.520,0.8654,-1.3440,-0.14224,37.713,1.66303
34.540,1.7443,-1.2817,-0.10495,37.489,1.66026
34.560,0.8883,0.4889,-0.15948,37.434,1.65749
34.580,1.3282,-3.0732,-0.13060,37.511,1.65471
34.600,2.2417,-2.9010,-0.08680,36.951,1.65194
34.620,1.3237,0.9859,-0.09891,37.087,1.64916
34.640,1.5967,-1.1608,-0.13206,37.148,1.64637
34.660,1.8339,-2.3396,-0.13076,36.952,1.64359
34.680,1.3698,-0.9486,-0.11086,36.818,1.64080
34.700,1.6959,0.7969,-0.12180,36.781,1.63801
34.720,1.7154,-0.7967,-0.11085,36.856,1.63521
34.740,1.4255,0.6757,-0.13827,36.788,1.63241
34.760,1.2243,2.0848,-0.11377,36.999,1.62962
34.780,1.5993,0.3298,-0.14877,37.073,1.62681
34.800,1.9557,-2.0808,-0.16483,36.931,1.62401
34.820,1.4417,-0.4388,-0.13301,36.846,1.62120
34.840,1.4021,1.7484,-0.12828,36.887,1.61839
34.860,0.8858,2.0329,-0.14183,37.019,1.61558
34.880,1.8197,-0.0751,-0.11505,37.141,1.61276
34.900,1.2513,-0.7204,-0.11137,37.123,1.60994
34.920,1.8705,-0.1171,-0.14028,37.150,1.60712
34.940,1.6867,0.3748,-0.13611,37.146,1.60430
34.960,2.0231,-0.2332,-0.16234,37.294,1.60147
34.980,1.6986,-0.0221,-0.14780,37.116,1.59864
35.000,1.1914,-1.5904,-0.15935,37.225,1.59581
35.020,2.4887,-1.6656,-0.13997,36.891,1.59298
35.040,1.9872,0.3695,-0.14991,36.972,1.59014
35.060,1.5119,-0.0140,-0.14555,37.019,1.58731
35.080,1.2757,-2.4190,-0.11416,37.019,1.58446
35.100,1.0974,-0.5122,-0.14137,36.635,1.58162
35.120,2.1062,3.4620,-0.11829,36.917,1.57878
35.140,1.4185,1.3439,-0.10639,37.078,1.57593
35.160,1.2308,-0.0690,-0.14913,37.083,1.57308
35.180,1.8620,-1.2705,-0.12455,37.166,1.57023
35.200,1.6496,-0.0903,-0.12664,36.996,1.56737
35.220,1.7601,1.5404,-0.15158,37.089,1.56451
35.240,1.4821,0.6666,-0.17436,37.369,1.56165
35.260,1.8571,2.7127,-0.10258,37.157,1.55879
35.280,1.9937,2.6096,-0.09454,37.642,1.55593
35.300,1.5243,0.6097,-0.14760,37.563,1.55306
35.320,1.6894,-0.1195,-0.10987,37.712,1.55019
35.340,1.4075,-1.0459,-0.18601,37.564,1.54732
35.360,1.6290,-1.2345,-0.11650,37.634,1.54445
35.380,2.0180,-2.3305,-0.13339,37.405,1.54158
35.400,1.6620,-1.1335,-0.16561,37.286,1.53870
35.420,1.3585,-0.9641,-0.16187,37.245,1.53582
35.440,1.4748,-1.2903,-0.14223,37.127,1.53294
35.460,1.1530,0.1710,-0.12085,37.083,1.53006
35.480,1.4154,0.0938,-0.12163,37.259,1.52717
35.500,1.9085,-3.2139,-0.13817,37.029,1.52428
35.520,2.0883,-2.0378,-0.11725,36.814,1.52139
35.540,0.8004,-1.0942,-0.14595,36.822,1.51850
35.560,1.7068,-2.3948,-0.15279,36.721,1.51561
35.580,1.5482,-1.3346,-0.13546,36.540,1.51271
35.600,0.8106,-0.6336,-0.11861,36.564,1.50982
35.620,1.6732,-0.6957,-0.14273,36.462,1.50692
35.640,1.6981,-0.5224,-0.14315,36.523,1.50402
35.660,1.7600,-0.6812,-0.14647,36.516,1.50111
35.680,0.9940,0.1796,-0.13525,36.480,1.49821
35.700,1.4221,1.0987,-0.17562,36.467,1.49530
35.720,1.9318,3.2273,-0.10470,36.651,1.49239
35.740,1.0100,0.8240,-0.13369,36.888,1.48948
35.760,2.0055,-1.5999,-0.13056,36.859,1.48657
35.780,1.3952,-3.3968,-0.10388,36.674,1.48366
35.800,0.9095,-3.8872,-0.11682,36.402,1.48074
35.820,1.6509,-3.7561,-0.10628,36.000,1.47782
35.840,1.7379,-3.3745,-0.14254,35.788,1.47490
35.860,1.2310,-1.4897,-0.14162,35.635,1.47198
35.880,0.8663,-2.0993,-0.13226,35.625,1.46906
35.900,1.7438,-1.1897,-0.17124,35.287,1.46613
35.920,2.9122,1.9918,-0.16030,35.544,1.46321
35.940,1.9154,2.6157,-0.14718,35.735,1.46028
35.960,1.4604,0.9884,-0.16150,35.960,1.45735
35.980,1.0217,-0.5146,-0.12334,35.867,1.45442
36.000,1.7090,-1.1907,-0.16909,35.911,1.45149
36.020,1.0928,1.0557,-0.13227,35.741,1.44855
36.040,1.8038,0.3190,-0.15744,36.020,1.44562
36.060,1.4347,-2.6443,-0.15105,35.801,1.44268
36.080,1.7521,0.7379,-0.11709,35.709,1.43974
36.100,2.0623,4.4507,-0.14798,35.965,1.43680
36.120,2.7597,3.0806,-0.12220,36.413,1.43386
36.140,1.4663,-0.7224,-0.15208,36.397,1.43092
36.160,1.7311,-4.5071,-0.13569,36.322,1.42797
36.180,1.6230,-1.0240,-0.15895,35.871,1.42503
36.200,2.4338,1.7343,-0.17955,36.179,1.42208
36.220,1.0309,-2.3740,-0.15987,36.234,1.41913
36.240,1.5280,-0.9509,-0.15283,35.895,1.41618
36.260,1.8257,0.9028,-0.14085,36.052,1.41323
36.280,1.4854,-0.2412,-0.13970,36.162,1.41027
36.300,0.8444,-1.5810,-0.12900,36.099,1.40732
36.320,1.5960,-0.5530,-0.15611,35.998,1.40437
36.340,2.6076,1.3794,-0.14339,36.130,1.40141
36.360,2.3975,0.3779,-0.15177,36.172,1.39845
36.380,1.8437,1.8256,-0.12451,36.259,1.39549
36.400,2.8443,2.6052,-0.13635,36.480,1.39253
36.420,2.0518,2.4449,-0.12384,36.695,1.38957
36.440,1.5302,1.5084,-0.16881,36.832,1.38661
36.460,1.3564,-0.7106,-0.12624,36.937,1.38364
36.480,1.1775,-3.6807,-0.14928,36.707,1.38068
36.500,1.7703,-0.8173,-0.13009,36.506,1.37771
36.520,1.9721,1.8330,-0.15905,36.654,1.37474
36.540,1.8390,1.3262,-0.13459,36.770,1.37177
36.560,2.1347,1.5864,-0.14770,36.863,1.36880
36.580,1.6687,0.0832,-0.15837,37.015,1.36583
36.600,1.1464,-0.6411,-0.16721,36.915,1.36286
36.620,1.3792,-0.7775,-0.11247,37.017,1.35989
36.640,1.3007,-1.5678,-0.14000,36.839,1.35692
36.660,1.6305,1.0160,-0.13517,36.850,1.35394
36.680,1.7889,-0.3452,-0.19185,37.017,1.35097
36.700,1.9616,0.8114,-0.15905,36.895,1.34799
36.720,2.1588,3.2799,-0.13358,37.247,1.34501
36.740,2.7879,3.0533,-0.15749,37.451,1.34203
36.760,1.7455,1.5251,-0.15894,37.698,1.33905
36.780,1.1981,-2.6613,-0.14196,37.660,1.33607
36.800,0.9001,-2.7080,-0.16138,37.410,1.33309
36.820,1.2171,-0.4223,-0.15884,37.284,1.33011
36.840,1.8566,-0.8103,-0.16198,37.384,1.32713
36.860,1.7881,-0.1058,-0.13904,37.333,1.32414
36.880,2.1162,0.9790,-0.15841,37.463,1.32116
36.900,2.1820,-0.5871,-0.12170,37.490,1.31817
36.920,1.6950,-0.4010,-0.17423,37.384,1.31519
36.940,2.2090,2.2792,-0.13625,37.552,1.31220
36.960,0.6131,-0.0901,-0.13288,37.796,1.30921
36.980,1.7064,-1.2390,-0.17843,37.664,1.30623
37.000,1.5189,0.1360,-0.14888,37.756,1.30324
37.020,1.4119,0.3387,-0.16151,37.784,1.30025
37.040,1.3949,-0.6032,-0.16310,37.835,1.29726
37.060,1.2773,-2.1887,-0.12016,37.816,1.29427
37.080,1.5074,-0.9065,-0.13835,37.590,1.29128
37.100,1.5783,-0.1405,-0.15979,37.844,1.28829
37.120,0.7559,-3.6179,-0.16576,37.656,1.28529
37.140,1.4627,-0.7388,-0.13442,37.500,1.28230
37.160,1.7197,1.3418,-0.15549,37.618,1.27931
37.180,1.0340,-1.2540,-0.13611,37.650,1.27631
37.200,0.5812,-2.4319,-0.12443,37.507,1.27332
37.220,1.6125,-1.0201,-0.14233,37.388,1.27033
37.240,1.5047,-1.4899,-0.15388,37.360,1.26733
37.260,1.5974,0.2569,-0.16998,37.281,1.26434
37.280,1.0646,-1.0915,-0.13885,37.398,1.26134
37.300,1.9080,-1.5821,-0.12907,37.188,1.25834
37.320,2.1012,2.2432,-0.20026,37.254,1.25535
37.340,2.4751,1.2250,-0.14570,37.529,1.25235
37.360,0.7783,-1.1673,-0.13821,37.565,1.24935
37.380,1.3166,-2.7096,-0.19750,37.405,1.24635
37.400,1.5281,-1.6877,-0.13964,37.275,1.24336
37.420,0.9297,-0.5801,-0.17107,37.283,1.24036
37.440,1.8023,0.1227,-0.13488,37.171,1.23736
37.460,0.8487,-1.3967,-0.11282,37.393,1.23436
37.480,1.3069,0.0416,-0.17122,37.062,1.23136
37.500,0.8278,-0.7319,-0.16522,37.357,1.22836
37.520,0.7087,-2.1656,-0.15096,36.992,1.22536
37.540,1.4205,-1.3833,-0.15645,36.985,1.22236
37.560,1.1219,-0.5104,-0.17591,36.790,1.21937
37.580,1.3520,-0.8330,-0.14365,36.938,1.21637
37.600,0.7761,-2.2649,-0.16816,36.798,1.21337
37.620,0.1176,-2.5394,-0.14055,36.594,1.21037
37.640,1.1883,-1.0792,-0.17249,36.533,1.20737
37.660,0.2226,-3.2345,-0.12439,36.459,1.20437
37.680,0.8046,-1.7849,-0.14829,36.111,1.20137
37.700,-0.5301,-2.4393,-0.17593,36.193,1.19837
37.720,0.4607,-2.4144,-0.16069,35.762,1.19537
37.740,1.6943,0.7858,-0.13353,35.974,1.19237
37.760,2.0360,-0.0339,-0.14884,35.914,1.18937
37.780,1.0721,0.0702,-0.12065,36.086,1.18637
37.800,0.2412,-2.0970,-0.13317,35.978,1.18337
37.820,1.2385,-0.8463,-0.15801,35.835,1.18037
37.840,1.2515,-0.5693,-0.11863,35.952,1.17737
37.860,0.4876,-2.8283,-0.16433,35.847,1.17437
37.880,0.3134,-2.1398,-0.15727,35.569,1.17137
37.900,0.7117,-1.8735,-0.13319,35.553,1.16837
37.920,0.3050,-2.6328,-0.11724,35.305,1.16537
37.940,2.0981,1.0309,-0.15365,35.303,1.16237
37.960,2.9303,2.4342,-0.15840,35.551,1.15937
37.980,1.6521,1.5491,-0.13294,35.724,1.15638
38.000,1.1217,-0.9361,-0.15014,35.725,1.15338
38.020,1.7144,-1.2269,-0.14385,35.695,1.15038
38.040,0.5636,-1.1153,-0.12941,35.638,1.14738
38.060,0.8182,-1.1701,-0.16553,35.523,1.14439
38.080,0.8443,-0.5849,-0.15662,35.587,1.14139
38.100,0.7623,-0.6437,-0.14376,35.558,1.13839
38.120,1.2759,-0.4440,-0.12483,35.490,1.13540
38.140,0.2583,-2.3340,-0.14670,35.538,1.13240
38.160,2.2133,-0.7024,-0.16831,35.175,1.12941
38.180,2.4317,1.7969,-0.14739,35.527,1.12641
38.200,0.5782,-1.5061,-0.14696,35.641,1.12342
38.220,0.6246,-2.1493,-0.17501,35.390,1.12042
38.240,1.2692,-2.5116,-0.13454,35.410,1.11743
38.260,0.2560,-2.6168,-0.18970,35.207,1.11444
38.280,0.6154,-2.3380,-0.13139,35.110,1.11145
38.300,1.5312,-0.2399,-0.16014,34.949,1.10846
38.320,0.6969,-1.7167,-0.18331,35.146,1.10546
38.340,0.0312,-2.9229,-0.12656,34.800,1.10247
38.360,-0.2878,-3.0912,-0.15182,34.736,1.09948
38.380,-0.6488,-1.9545,-0.16566,34.439,1.09649
38.400,0.9362,-0.1056,-0.14853,34.436,1.09351
38.420,0.6563,-2.9227,-0.15709,34.378,1.09052
38.440,1.2997,-0.1636,-0.16618,34.125,1.08753
38.460,2.6370,2.9608,-0.12819,34.384,1.08454
38.480,1.7758,0.8011,-0.15744,34.666,1.08156
38.500,1.7947,-0.8276,-0.13583,34.564,1.07857
38.520,1.1287,-0.2406,-0.13865,34.658,1.07559
38.540,1.3831,-0.4490,-0.14956,34.631,1.07261
38.560,2.4077,1.3147,-0.14940,34.675,1.06962
38.580,2.4234,1.2567,-0.17348,34.951,1.06664
38.600,1.9788,1.8527,-0.15602,34.903,1.06366
38.620,2.6933,0.6951,-0.15246,35.225,1.06068
38.640,0.8929,-1.6430,-0.12629,35.173,1.05770
38.660,2.7061,0.8270,-0.12924,35.156,1.05472
38.680,3.0764,2.1860,-0.12837,35.497,1.05175
38.700,0.9020,-2.4632,-0.15504,35.546,1.04877
38.720,0.8848,-2.6688,-0.14800,35.180,1.04579
38.740,0.2431,-2.4793,-0.14167,35.221,1.04282
38.760,0.0056,-4.0418,-0.12169,34.990,1.03985
38.780,-0.9827,-3.6836,-0.15272,34.691,1.03687
38.800,0.6711,-0.7335,-0.12845,34.521,1.03390
38.820,0.8691,-1.5801,-0.10103,34.580,1.03093
38.840,-0.8901,-3.0012,-0.17798,34.379,1.02796
38.860,0.1246,-2.8299,-0.13150,34.127,1.02499
38.880,1.4626,-0.4264,-0.12777,34.059,1.02203
38.900,1.4001,-1.1527,-0.16058,34.132,1.01906
38.920,-0.1499,-2.5884,-0.14460,34.006,1.01609
38.940,-0.5770,-4.0594,-0.16108,33.771,1.01313
38.960,-0.7230,-4.4413,-0.13947,33.380,1.01017
38.980,1.5913,-0.1579,-0.14497,33.240,1.00721
39.000,2.8518,1.9345,-0.15215,33.392,1.00424
39.020,3.1590,1.7825,-0.13856,33.573,1.00129
39.040,1.5865,-0.0503,-0.12385,33.715,0.99833
39.060,1.4057,-0.4249,-0.13552,33.683,0.99537
39.080,2.1284,0.7992,-0.13620,33.707,0.99242
39.100,1.4091,-0.4829,-0.12275,33.935,0.98946
39.120,0.5256,-1.6449,-0.17078,33.778,0.98651
39.140,0.5536,-2.6215,-0.13630,33.844,0.98356
39.160,-0.0074,-1.9355,-0.15709,33.507,0.98061
39.180,0.8632,-0.5466,-0.14752,33.630,0.97766
39.200,-0.0088,-2.0176,-0.13699,33.549,0.97471
39.220,0.6927,-1.4380,-0.11630,33.341,0.97177
39.240,1.8472,-0.8035,-0.20371,33.480,0.96882
39.260,-0.1327,-3.4865,-0.13021,33.280,0.96588
39.280,2.5280,-0.2761,-0.16550,33.124,0.96294
39.300,0.9473,-0.4054,-0.13891,33.400,0.96000
39.320,-0.3527,-2.2169,-0.12283,33.212,0.95706
39.340,0.7250,-1.4652,-0.17085,33.094,0.95412
39.360,0.9692,-1.1715,-0.15236,32.971,0.95118
39.380,0.1014,-2.2531,-0.13305,33.112,0.94825
39.400,0.9251,-1.5656,-0.15178,32.782,0.94532
39.420,1.5918,-1.1386,-0.16809,33.007,0.94239
39.440,0.4373,-0.9729,-0.14107,32.963,0.93946
39.460,0.5362,-2.0630,-0.16291,32.906,0.93653
39.480,0.2329,-1.1262,-0.13683,32.745,0.93360
39.500,2.1648,0.1139,-0.13718,32.718,0.93068
39.520,2.8378,0.7934,-0.16002,32.983,0.92776
39.540,1.0729,-2.1798,-0.13418,33.021,0.92484
39.560,0.4893,-3.0609,-0.14979,32.854,0.92192
39.580,2.0484,-0.9442,-0.12828,32.791,0.91900
39.600,1.4312,0.2762,-0.14818,32.887,0.91608
39.620,0.6024,-1.5153,-0.14815,32.903,0.91317
39.640,2.0956,0.4013,-0.13361,32.856,0.91026
39.660,1.9942,0.4199,-0.10797,32.965,0.90735
39.680,0.4351,-1.7154,-0.13567,33.030,0.90444
39.700,-2.0862,-3.9893,-0.10957,32.836,0.90153
39.720,0.4062,-1.7551,-0.14756,32.491,0.89863
39.740,3.2610,1.2193,-0.12442,32.582,0.89572
39.760,1.5990,0.0396,-0.12271,32.916,0.89282
39.780,0.4793,-1.1101,-0.13409,32.768,0.88992
39.800,2.4045,0.7265,-0.11856,32.743,0.88703
39.820,2.9946,2.1628,-0.13420,32.987,0.88413
39.840,2.8142,0.8427,-0.12386,33.300,0.88124
39.860,2.2214,1.0260,-0.13592,33.311,0.87835
39.880,2.3213,1.4304,-0.16012,33.536,0.87546
39.900,1.0771,-0.2387,-0.13970,33.671,0.87257
39.920,-1.1668,-3.9350,-0.15401,33.571,0.86969
39.940,-1.5802,-3.4151,-0.17775,33.208,0.86680
39.960,0.4799,-1.0265,-0.11582,33.044,0.86392
39.980,0.9403,0.0309,-0.14680,33.111,0.86104
40.000,0.9106,-0.7394,-0.14446,33.186,0.85817
40.020,0.6543,-2.7371,-0.14889,33.096,0.85529
40.040,-0.8471,-3.2204,-0.16832,32.941,0.85242
40.060,-1.9594,-5.0216,-0.15041,32.653,0.84955
40.080,-0.2827,-2.2603,-0.11346,32.351,0.84668
40.100,-0.1397,-2.6621,-0.15568,32.329,0.84382
40.120,-0.1224,-2.2840,-0.13589,32.046,0.84095
40.140,0.7498,-1.2300,-0.14985,32.043,0.83809
40.160,-0.4356,-1.6145,-0.13305,31.899,0.83523
40.180,2.8264,0.6472,-0.12750,31.822,0.83237
40.200,2.3484,1.4183,-0.10100,32.205,0.82952
40.220,0.8032,-1.4907,-0.14234,32.214,0.82667
40.240,-0.0934,-0.9889,-0.12060,32.152,0.82382
40.260,-0.3254,-2.1075,-0.16343,32.121,0.82097
40.280,0.1718,-1.0342,-0.13166,31.855,0.81812
40.300,2.9207,0.6581,-0.12196,32.096,0.81528
40.320,2.3846,-0.8180,-0.10257,32.249,0.81244
40.340,-0.0006,-1.1497,-0.14815,32.153,0.80960
40.360,0.6232,-1.3147,-0.15420,32.195,0.80677
40.380,0.8040,-1.4655,-0.16141,32.074,0.80393
40.400,0.1110,-1.7641,-0.16491,32.145,0.80110
40.420,0.2550,-1.6174,-0.14824,31.903,0.79828
40.440,1.9371,0.2989,-0.15751,31.951,0.79545
40.460,3.2988,0.4149,-0.14463,32.222,0.79263
40.480,1.0207,-1.4405,-0.16503,32.302,0.78981
40.500,1.5397,-0.5860,-0.11037,32.196,0.78699
40.520,3.4827,1.9535,-0.12738,32.367,0.78417
40.540,3.6587,1.9377,-0.11257,32.718,0.78136
40.560,1.1404,-0.0767,-0.13493,32.849,0.77855
40.580,0.6816,-1.7424,-0.13255,32.867,0.77574
40.600,0.3731,-1.7450,-0.17127,32.722,0.77294
40.620,3.2008,1.3208,-0.14675,32.801,0.77013
40.640,1.1381,-0.9492,-0.17049,33.147,0.76734
40.660,0.2889,-1.9633,-0.16157,32.784,0.76454
40.680,2.2986,0.6638,-0.13133,32.960,0.76174
40.700,2.6147,0.1550,-0.13985,32.986,0.75895
40.720,1.6571,0.4724,-0.12956,33.259,0.75616
40.740,-0.7337,-3.3635,-0.12764,33.236,0.75338
40.760,0.8972,-0.9665,-0.13779,32.846,0.75060
40.780,1.7932,-0.0397,-0.07159,33.205,0.74782
40.800,0.0341,-1.7421,-0.14217,32.996,0.74504
40.820,1.5181,0.5653,-0.11305,33.140,0.74226
40.840,0.9509,-0.6127,-0.13475,33.117,0.73949
40.860,1.1721,-1.5298,-0.13553,33.110,0.73672
40.880,0.5937,-1.2245,-0.11187,33.135,0.73396
40.900,1.0136,-1.0291,-0.11009,33.037,0.73119
40.920,0.9352,-0.1428,-0.14617,33.070,0.72843
40.940,1.4111,-0.2411,-0.13684,33.126,0.72568
40.960,0.9916,-0.5203,-0.11708,33.270,0.72292
40.980,1.4073,-0.9091,-0.12841,33.292,0.72017
41.000,2.6518,0.1157,-0.15957,33.350,0.71742
41.020,1.3655,-0.7282,-0.13722,33.589,0.71468
41.040,0.1527,-1.8608,-0.13551,33.426,0.71194
41.060,0.5825,-0.4286,-0.14321,33.439,0.70920
41.080,2.5079,-0.1400,-0.11979,33.525,0.70646
41.100,1.6768,-0.3113,-0.15469,33.711,0.70373
41.120,1.6042,-0.8893,-0.12835,33.700,0.70100
41.140,0.1366,-0.8984,-0.08979,33.718,0.69827
41.160,1.2872,0.0613,-0.11674,33.656,0.69555
41.180,1.8884,0.2163,-0.15404,33.879,0.69283
41.200,0.4725,-0.7266,-0.14935,33.821,0.69011
41.220,1.1068,-0.6402,-0.13407,33.945,0.68739
41.240,1.3507,-1.1037,-0.12672,33.926,0.68468
41.260,-0.1296,-2.3744,-0.11972,33.932,0.68198
41.280,-0.4481,-2.2756,-0.12014,33.712,0.67927
41.300,1.5819,-1.6610,-0.12607,33.722,0.67657
41.320,-0.4785,-2.6111,-0.13615,33.717,0.67387
41.340,-1.2387,-2.7210,-0.15907,33.450,0.67118
41.360,-0.5649,-1.2941,-0.11979,33.316,0.66849
41.380,-0.6146,-2.1808,-0.10814,33.235,0.66580
41.400,-2.5663,-3.0712,-0.11841,32.959,0.66311
41.420,1.5552,-1.1143,-0.08847,32.740,0.66043
41.440,1.6131,-0.2327,-0.09385,33.005,0.65775
41.460,-1.0607,-2.2219,-0.11147,32.819,0.65508
41.480,-0.6429,-2.7773,-0.16251,32.665,0.65241
41.500,0.7247,-0.7523,-0.13264,32.414,0.64974
41.520,3.0566,0.1761,-0.10723,32.635,0.64708
41.540,1.6718,0.0093,-0.13679,32.800,0.64442
41.560,0.9913,-0.3925,-0.10840,32.857,0.64176
41.580,0.6087,-1.9607,-0.11869,32.873,0.63910
41.600,0.2294,-1.6895,-0.11939,32.784,0.63645
41.620,-0.0734,-1.7989,-0.13352,32.733,0.63381
41.640,0.8620,-1.6589,-0.11908,32.612,0.63116
41.660,2.6338,0.0147,-0.08865,32.730,0.62852
41.680,2.2881,0.0692,-0.10948,32.855,0.62589
41.700,3.9139,0.8384,-0.11389,33.019,0.62326
41.720,2.9449,0.6763,-0.10019,33.388,0.62063
41.740,2.4651,0.4467,-0.13323,33.515,0.61800
41.760,2.3213,-0.2644,-0.12315,33.629,0.61538
41.780,0.8475,-0.9439,-0.11612,33.810,0.61276
41.800,-0.5785,-2.2086,-0.13123,33.532,0.61015
41.820,-0.6200,-1.8759,-0.11117,33.533,0.60754
41.840,0.0871,-1.1898,-0.16137,33.261,0.60493
41.860,1.2506,0.1501,-0.15615,33.545,0.60233
41.880,2.0126,-0.3815,-0.12695,33.456,0.59973
41.900,3.4012,1.3198,-0.13057,33.775,0.59713
41.920,1.0462,-0.2223,-0.12825,33.966,0.59454
41.940,-1.7150,-2.9716,-0.11280,33.867,0.59195
41.960,-2.5141,-2.6860,-0.10766,33.568,0.58937
41.980,0.9748,-1.3579,-0.10903,33.366,0.58679
42.000,1.6239,-0.0871,-0.11598,33.553,0.58421
42.020,-0.5456,-1.9695,-0.11685,33.495,0.58164
42.040,-1.4880,-2.4193,-0.15306,33.228,0.57907
42.060,3.0831,0.0274,-0.13906,33.188,0.57650
42.080,3.9414,1.3230,-0.11804,33.493,0.57394
42.100,1.9672,-0.7838,-0.10737,33.782,0.57138
42.120,1.3015,-0.4040,-0.13741,33.697,0.56883
42.140,2.0981,-0.4486,-0.11824,33.753,0.56628
42.160,-0.8468,-1.2842,-0.08933,33.863,0.56373
42.180,-1.1036,-1.8517,-0.07952,33.597,0.56119
42.200,0.2955,-2.0713,-0.10701,33.501,0.55866
42.220,0.8474,-1.5229,-0.14094,33.428,0.55612
42.240,0.8193,-1.5679,-0.10940,33.500,0.55359
42.260,-1.7548,-1.9724,-0.14122,33.409,0.55107
42.280,-0.4998,-1.8012,-0.09489,33.157,0.54854
42.300,0.1148,-0.8200,-0.12013,33.215,0.54603
42.320,-1.8894,-1.8418,-0.10883,33.100,0.54351
42.340,-2.3112,-2.6023,-0.11846,32.879,0.54100
42.360,-1.0981,-1.3108,-0.11830,32.658,0.53850
42.380,1.6146,-0.0738,-0.08860,32.618,0.53600
42.400,1.6937,-0.5104,-0.14008,32.879,0.53350
42.420,1.3174,-0.1001,-0.11723,32.848,0.53101
42.440,-0.0917,-1.9084,-0.09685,33.041,0.52852
42.460,-2.1355,-2.7067,-0.09280,32.637,0.52604
42.480,-0.6953,-2.5367,-0.11863,32.486,0.52356
42.500,-1.3647,-1.5658,-0.13681,32.259,0.52108
42.520,1.2795,-0.6848,-0.13371,32.210,0.51861
42.540,0.8861,-0.8715,-0.11247,32.349,0.51614
42.560,-1.5829,-2.2652,-0.11497,32.250,0.51368
42.580,-0.0530,-0.3864,-0.12016,32.026,0.51122
42.600,1.1501,-0.8783,-0.09653,32.197,0.50877
42.620,0.4315,-0.6346,-0.12015,32.060,0.50632
42.640,0.9650,-2.3856,-0.13882,32.109,0.50387
42.660,-0.0383,-1.0201,-0.13413,31.989,0.50143
42.680,1.2835,-0.9669,-0.13513,32.082,0.49899
42.700,0.8115,-0.5666,-0.12854,32.013,0.49656
42.720,1.7064,0.2358,-0.11302,32.156,0.49413
42.740,4.0538,0.2744,-0.13051,32.268,0.49171
42.760,2.9011,1.2201,-0.12940,32.668,0.48929
42.780,0.0463,-1.1765,-0.11727,32.653,0.48687
42.800,-2.5309,-2.0901,-0.13541,32.478,0.48446
42.820,-0.9350,-1.9864,-0.06440,32.269,0.48206
42.840,-0.0852,-0.9879,-0.10555,32.161,0.47965
42.860,-0.1279,-1.5275,-0.08465,32.229,0.47726
42.880,0.6112,-0.6318,-0.13411,32.100,0.47486
42.900,2.6912,-0.1324,-0.10759,32.374,0.47248
42.920,-0.4911,-1.6331,-0.10648,32.410,0.47009
42.940,-0.5761,-1.4649,-0.09159,32.234,0.46771
42.960,-0.5946,-1.7212,-0.11428,32.151,0.46534
42.980,-0.3831,-1.0385,-0.15110,32.036,0.46297
43.000,-0.8471,-1.0094,-0.11382,32.068,0.46060
43.020,0.3540,-0.5183,-0.11960,31.883,0.45824
43.040,1.0186,0.0962,-0.12974,32.114,0.45589
43.060,0.0414,-1.3499,-0.14336,32.050,0.45354
43.080,0.8368,-0.3991,-0.08770,32.007,0.45119
43.100,0.4540,-1.1242,-0.10400,32.173,0.44885
43.120,-0.3446,-1.7700,-0.10891,32.039,0.44651
43.140,2.4090,0.1153,-0.12383,32.038,0.44418
43.160,3.0133,0.3293,-0.11007,32.361,0.44185
43.180,1.5726,-0.6907,-0.07623,32.435,0.43953
43.200,0.4793,-0.8079,-0.07472,32.488,0.43721
43.220,-1.6214,-1.9896,-0.11187,32.402,0.43490
43.240,1.3368,-1.1136,-0.13467,32.223,0.43259
43.260,1.6919,-0.6203,-0.12986,32.538,0.43028
43.280,2.3392,-0.0785,-0.10539,32.509,0.42798
43.300,2.0335,-0.1321,-0.09801,32.851,0.42569
43.320,0.9891,-0.2119,-0.09712,32.728,0.42340
43.340,1.8476,-0.2554,-0.08001,32.953,0.42112
43.360,1.2746,-1.0905,-0.10605,32.916,0.41884
43.380,2.9009,-0.4706,-0.09398,32.992,0.41656
43.400,1.4887,-0.9088,-0.11809,33.211,0.41429
43.420,1.6203,-0.4445,-0.09455,33.290,0.41203
43.440,-0.4581,-0.7336,-0.10294,33.434,0.40977
43.460,-1.4353,-2.0508,-0.08092,33.153,0.40751
43.480,2.1237,0.0796,-0.11288,33.070,0.40526
43.500,3.2369,0.1307,-0.13122,33.438,0.40301
43.520,0.8033,-0.6299,-0.08980,33.397,0.40077
43.540,0.2765,-0.4551,-0.15789,33.454,0.39854
43.560,-0.8066,-0.8283,-0.10641,33.425,0.39631
43.580,-2.3074,-1.9816,-0.08727,33.313,0.39408
43.600,-3.2670,-3.0242,-0.13227,33.044,0.39186
43.620,0.9508,-0.2815,-0.11807,32.839,0.38965
43.640,2.8470,-0.0799,-0.05092,33.142,0.38744
43.660,-0.8706,-1.4460,-0.11244,33.127,0.38523
43.680,-1.5167,-1.8038,-0.09392,32.913,0.38303
43.700,0.1426,-1.1289,-0.09259,32.751,0.38084
43.720,0.0012,-1.5368,-0.11410,32.908,0.37865
43.740,-1.5794,-1.8645,-0.10394,32.737,0.37646
43.760,-1.9790,-1.2087,-0.09924,32.625,0.37428
43.780,-1.5752,-1.9836,-0.07424,32.424,0.37211
43.800,0.7442,-0.6626,-0.13331,32.197,0.36994
43.820,2.5647,-0.2682,-0.09232,32.494,0.36778
43.840,-0.0135,-0.7078,-0.11468,32.469,0.36562
43.860,-0.9092,-1.6457,-0.08054,32.411,0.36347
43.880,0.9279,-0.7201,-0.11077,32.302,0.36132
43.900,1.5234,-0.7203,-0.11465,32.431,0.35917
43.920,0.9528,-0.3413,-0.10676,32.442,0.35704
43.940,0.8808,-1.0857,-0.10599,32.494,0.35490
43.960,0.2328,-0.2443,-0.08249,32.519,0.35278
43.980,-0.3802,-1.0085,-0.10492,32.455,0.35065
44.000,-1.5363,-1.2839,-0.10667,32.368,0.34854
44.020,-2.3585,-1.5580,-0.11814,32.056,0.34643
44.040,2.1546,-0.6940,-0.09416,31.967,0.34432
44.060,0.9936,-0.3466,-0.10921,32.357,0.34222
44.080,-1.1401,-1.1345,-0.08532,32.134,0.34012
44.100,0.9033,-0.4051,-0.10628,32.134,0.33803
44.120,2.8837,-0.2218,-0.10030,32.195,0.33595
44.140,4.4693,1.2340,-0.09978,32.410,0.33387
44.160,2.1959,-0.2031,-0.07437,32.888,0.33180
44.180,-1.3686,-1.4419,-0.14888,32.817,0.32973
44.200,0.4623,-0.4517,-0.08512,32.659,0.32767
44.220,1.5674,-0.6004,-0.07970,32.850,0.32561
44.240,3.8905,-0.5509,-0.09373,32.888,0.32356
44.260,2.4403,1.0852,-0.10973,33.249,0.32151
44.280,-0.0363,-0.6112,-0.10478,33.380,0.31947
44.300,-0.9000,-1.7993,-0.10299,33.260,0.31743
44.320,0.7891,-0.5405,-0.11240,33.224,0.31540
44.340,1.7503,-0.5258,-0.10401,33.300,0.31338
44.360,-1.6979,-3.8403,-0.11014,33.390,0.31136
44.380,-3.0750,-2.1787,-0.09560,33.186,0.30935
44.400,-4.0066,-2.1387,-0.08762,32.840,0.30734
44.420,-1.5261,-0.8718,-0.11607,32.551,0.30534
44.440,0.8745,-0.7733,-0.13288,32.662,0.30334
44.460,-2.4977,-1.4985,-0.07521,32.635,0.30135
44.480,-3.4507,-1.4723,-0.10301,32.304,0.29937
44.500,-3.0101,-1.4897,-0.08242,32.205,0.29739
44.520,-2.4925,-1.9539,-0.09914,31.857,0.29541
44.540,-1.0607,-1.6217,-0.11347,31.809,0.29344
44.560,-1.4052,-1.4833,-0.08526,31.653,0.29148
44.580,-0.4302,-1.4603,-0.10592,31.553,0.28952
44.600,1.0379,-1.4628,-0.10155,31.538,0.28757
44.620,0.6901,-0.6127,-0.13200,31.571,0.28563
44.640,2.0144,0.0694,-0.13169,31.581,0.28369
44.660,5.3006,0.5480,-0.06778,31.814,0.28175
44.680,4.6592,-0.0935,-0.10686,32.246,0.27982
44.700,0.7490,-1.7688,-0.10390,32.400,0.27790
44.720,1.1189,-0.6355,-0.09905,32.365,0.27598
44.740,-0.0048,-0.8044,-0.08468,32.501,0.27407
44.760,-1.5723,-1.9959,-0.14751,32.370,0.27217
44.780,-1.1570,-0.8221,-0.02671,32.221,0.27027
44.800,-0.3727,-0.6883,-0.08521,32.064,0.26837
44.820,1.9774,-0.2354,-0.05456,32.117,0.26649
44.840,3.9191,0.8320,-0.13117,32.340,0.26460
44.860,4.7102,0.1032,-0.09331,32.740,0.26273
44.880,2.6761,0.0378,-0.10667,32.979,0.26086
44.900,0.6119,-0.8592,-0.07840,33.104,0.25899
44.920,-0.1771,-0.9841,-0.07868,32.980,0.25713
44.940,1.3239,0.4170,-0.10254,32.994,0.25528
44.960,1.2432,-0.3837,-0.09151,33.092,0.25343
44.980,2.3115,-0.8598,-0.09611,33.070,0.25159
45.000,2.0707,-0.6621,-0.05621,33.405,0.24976
45.020,-2.2670,-0.9361,-0.07195,33.258,0.24793
45.040,0.3116,-1.5368,-0.06413,33.129,0.24611
45.060,2.7186,-0.5280,-0.09135,33.197,0.24429
45.080,-0.2202,-1.1473,-0.06743,33.559,0.24248
45.100,-3.0673,-1.7361,-0.06183,33.232,0.24067
45.120,0.6685,-0.2637,-0.10257,33.080,0.23887
45.140,1.3482,-0.3452,-0.06670,33.312,0.23708
45.160,1.6108,-0.3315,-0.07907,33.190,0.23529
45.180,1.2631,-0.2927,-0.04521,33.560,0.23351
45.200,0.5965,-0.2470,-0.08276,33.413,0.23174
45.220,1.6273,-1.1048,-0.08627,33.606,0.22997
45.240,0.3541,-0.6945,-0.09975,33.590,0.22820
45.260,-0.4184,-0.8202,-0.06189,33.672,0.22645
45.280,-3.4671,-1.6485,-0.10559,33.486,0.22470
45.300,-0.7334,-1.2754,-0.08664,33.197,0.22295
45.320,0.5137,-0.2484,-0.09978,33.336,0.22121
45.340,-2.5412,-1.1964,-0.12348,33.241,0.21948
45.360,-2.0591,-0.8620,-0.07545,33.076,0.21775
45.380,-2.4836,-0.8995,-0.07197,32.877,0.21603
45.400,0.1990,-0.9806,-0.08952,32.689,0.21432
45.420,1.4914,-0.6869,-0.05779,32.932,0.21261
45.440,-1.3915,-1.3054,-0.09292,32.766,0.21091
45.460,1.7739,-0.4808,-0.04435,32.669,0.20921
45.480,1.8389,-0.5805,-0.05791,33.023,0.20752
45.500,-0.2246,-1.3992,-0.09110,32.945,0.20584
45.520,0.9918,-1.5713,-0.13061,32.944,0.20416
45.540,0.3424,-1.3768,-0.08423,33.010,0.20249
45.560,-0.7786,-1.1416,-0.05967,32.957,0.20083
45.580,0.5433,-0.3305,-0.05403,32.833,0.19917
45.600,2.0720,-0.8406,-0.03418,33.063,0.19752
45.620,0.2302,-0.8946,-0.06523,33.121,0.19587
45.640,-2.2299,-1.1208,-0.05133,33.007,0.19423
45.660,-2.6858,-1.4997,-0.08005,32.758,0.19260
45.680,-2.6024,-1.8723,-0.10740,32.549,0.19097
45.700,-3.1970,-1.7179,-0.08153,32.365,0.18935
45.720,-1.2824,-0.8282,-0.06330,31.977,0.18774
45.740,1.4282,-0.4459,-0.07955,32.188,0.18613
45.760,0.4394,-0.0135,-0.10017,32.207,0.18453
45.780,-0.7864,-0.1001,-0.06923,32.303,0.18293
45.800,-2.2176,-0.4494,-0.06403,32.048,0.18134
45.820,-0.3798,-0.9394,-0.07891,31.961,0.17976
45.840,-0.2181,0.0358,-0.06164,31.917,0.17819
45.860,-0.6195,-1.1569,-0.07935,31.931,0.17662
45.880,-1.5993,-0.8651,-0.08713,31.894,0.17505
45.900,-0.3778,-0.5145,-0.05058,31.670,0.17350
45.920,2.1247,-0.3711,-0.05659,31.866,0.17194
45.940,1.5555,-0.6209,-0.07765,31.994,0.17040
45.960,1.7101,-0.5033,-0.06852,32.008,0.16886
45.980,2.7406,0.0752,-0.03527,32.193,0.16733
46.000,3.3554,-0.0708,-0.04943,32.411,0.16581
46.020,1.6038,-0.2272,-0.11172,32.662,0.16429
46.040,-0.5745,-0.2930,-0.07085,32.691,0.16278
46.060,-0.6010,-1.5257,-0.08093,32.634,0.16127
46.080,1.1255,-0.6130,-0.10633,32.548,0.15977
46.100,0.5498,-0.6980,-0.10589,32.708,0.15828
46.120,-2.2600,-1.7158,-0.07620,32.582,0.15679
46.140,-0.3413,-0.8553,-0.09324,32.418,0.15531
46.160,1.4437,-0.6042,-0.08735,32.518,0.15384
46.180,1.5584,-0.8540,-0.05484,32.612,0.15238
46.200,-0.6471,-0.7784,-0.07001,32.726,0.15092
46.220,-0.3448,-1.1382,-0.07375,32.573,0.14946
46.240,1.5703,-0.7011,-0.05393,32.628,0.14802
46.260,0.2341,-0.3250,-0.08043,32.792,0.14658
46.280,-1.5222,-1.1781,-0.06531,32.706,0.14514
46.300,-1.0459,-1.3225,-0.04411,32.658,0.14371
46.320,1.3383,-0.1700,-0.05580,32.604,0.14229
46.340,3.2258,0.1070,-0.08042,32.878,0.14088
46.360,-0.0970,-0.7828,-0.08080,33.040,0.13947
46.380,-4.0297,-1.5523,-0.07888,32.798,0.13807
46.400,-0.6757,-1.6171,-0.07464,32.525,0.13668
46.420,0.9928,-0.9005,-0.02978,32.642,0.13529
46.440,0.2252,-0.2067,-0.03707,32.603,0.13391
46.460,0.8133,-0.5530,-0.05187,32.699,0.13254
46.480,2.4560,0.1287,-0.05064,32.747,0.13117
46.500,-0.7307,-1.0136,-0.03657,32.929,0.12981
46.520,-2.3276,-1.4106,-0.05422,32.636,0.12846
46.540,-0.3826,-1.4610,-0.08934,32.537,0.12711
46.560,0.6094,-1.5079,-0.04609,32.583,0.12577
46.580,-1.3543,-1.8541,-0.07903,32.625,0.12444
46.600,-1.7971,-1.5986,-0.04704,32.454,0.12311
46.620,-1.7321,-0.2151,-0.04592,32.359,0.12179
46.640,-0.9356,-0.4149,-0.03160,32.254,0.12047
46.660,1.2383,-0.5601,-0.06681,32.262,0.11917
46.680,0.4244,-0.5622,-0.07662,32.388,0.11787
46.700,0.4479,-0.2523,-0.05401,32.338,0.11657
46.720,-2.7803,-0.5570,-0.03028,32.311,0.11529
46.740,-3.4805,-1.4109,-0.09595,31.934,0.11401
46.760,1.2443,-0.6646,-0.06946,31.743,0.11274
46.780,-0.3020,-0.9808,-0.04522,32.076,0.11147
46.800,-1.2234,-0.8032,-0.04901,31.768,0.11021
46.820,0.7623,0.0038,-0.05278,32.013,0.10896
46.840,-2.7818,-0.9145,-0.05586,31.960,0.10771
46.860,-0.0910,-0.8201,-0.04857,31.606,0.10647
46.880,3.2553,-0.6302,-0.06625,31.869,0.10524
46.900,1.1379,-1.1188,-0.04647,32.100,0.10402
46.920,0.6243,0.0598,-0.07009,32.009,0.10280
46.940,1.7986,-0.8569,-0.05294,32.165,0.10159
46.960,-0.4965,-0.8191,-0.08440,32.101,0.10038
46.980,0.1633,-0.1061,-0.07493,32.111,0.09918
47.000,-0.0032,0.0614,-0.05572,32.140,0.09799
47.020,0.5173,-0.6923,-0.06051,32.099,0.09681
47.040,0.3083,-0.0066,-0.07009,32.193,0.09563
47.060,-0.0808,0.4640,-0.05048,32.263,0.09446
47.080,-0.4266,0.1054,-0.03854,32.169,0.09330
47.100,-0.2439,-0.7559,-0.06687,32.222,0.09214
47.120,-0.7794,-0.1338,-0.03372,32.128,0.09099
47.140,-0.0352,-0.8691,-0.04459,32.152,0.08985
47.160,0.0205,-0.6393,-0.02542,32.063,0.08872
47.180,2.4272,-0.2075,-0.04801,32.080,0.08759
47.200,1.6212,-0.7388,-0.06118,32.368,0.08647
47.220,-2.9008,-1.3213,-0.04034,32.251,0.08535
47.240,-0.0938,-0.7182,-0.04375,31.987,0.08424
47.260,2.1940,0.0840,-0.07295,32.274,0.08314
47.280,-0.0760,-0.2711,-0.06311,32.327,0.08205
47.300,-0.6559,-0.4164,-0.03526,32.210,0.08096
47.320,-0.9995,-0.7098,-0.07860,32.165,0.07988
47.340,0.1845,-0.3510,-0.08101,32.000,0.07881
47.360,2.2579,-0.3808,-0.02254,32.169,0.07774
47.380,2.0886,-0.4694,-0.07049,32.298,0.07668
47.400,0.8653,-0.8073,-0.05446,32.411,0.07563
47.420,-2.3397,-1.0364,-0.05476,32.450,0.07459
47.440,-3.7936,-1.0601,-0.05017,32.081,0.07355
47.460,-0.4149,-0.2611,-0.07712,31.868,0.07252
47.480,-2.6230,-0.4389,-0.06656,31.919,0.07150
47.500,-3.3408,-0.3285,-0.03007,31.441,0.07048
47.520,-1.4957,-1.7386,-0.04773,31.427,0.06947
47.540,-0.3522,-0.4888,-0.06516,31.242,0.06847
47.560,-0.4699,-0.6691,-0.04579,31.356,0.06747
47.580,1.4403,-1.5794,-0.04589,31.321,0.06648
47.600,2.0145,-0.6365,-0.02542,31.511,0.06550
47.620,0.2994,-0.2230,-0.03821,31.572,0.06453
47.640,-0.8608,-0.5783,-0.04446,31.593,0.06356
47.660,-0.3302,-0.5895,-0.05620,31.418,0.06260
47.680,3.4150,-0.2759,-0.02989,31.530,0.06165
47.700,1.4577,-0.2602,-0.04119,31.959,0.06070
47.720,-3.2673,-0.8542,-0.02761,31.651,0.05977
47.740,0.4564,-0.5935,-0.05186,31.467,0.05883
47.760,3.6569,-0.6402,-0.02694,31.766,0.05791
47.780,0.3243,0.0955,-0.01232,31.858,0.05699
47.800,0.4103,-0.2140,-0.04223,31.805,0.05608
47.820,1.7620,-0.8317,-0.06417,31.946,0.05518
47.840,0.0284,-0.9819,-0.01982,32.006,0.05428
47.860,-1.4520,-0.2455,-0.03891,31.888,0.05340
47.880,-0.8590,-0.3355,-0.04922,31.768,0.05251
47.900,1.5442,-0.8786,-0.03853,31.922,0.05164
47.920,1.8138,-0.9958,-0.05121,31.984,0.05077
47.940,2.1880,-1.0440,-0.09452,32.178,0.04991
47.960,0.3675,0.0502,0.00118,32.295,0.04906
47.980,1.3044,0.1178,0.00150,32.185,0.04821
48.000,0.7211,-0.0147,-0.00759,32.459,0.04738
48.020,-2.2364,-0.7268,-0.02040,32.293,0.04655
48.040,-1.2062,-0.8003,-0.03467,32.211,0.04572
48.060,-2.7611,-0.8113,-0.01837,32.070,0.04491
48.080,-0.8420,-1.4372,-0.03552,31.818,0.04410
48.100,-0.0080,-0.0242,-0.02502,31.930,0.04329
48.120,-1.7643,-0.1017,-0.03666,31.741,0.04250
48.140,0.4635,-0.5955,-0.06537,31.618,0.04171
48.160,1.9635,-0.6522,-0.03656,31.787,0.04093
48.180,0.0287,-0.0470,-0.09757,31.943,0.04016
48.200,-2.8664,-0.6660,0.00015,31.831,0.03939
48.220,-1.9231,-0.2970,-0.01271,31.596,0.03863
48.240,-1.3525,-0.9877,-0.03092,31.577,0.03788
48.260,-3.2344,0.2259,-0.06012,31.289,0.03714
48.280,-1.6975,-0.6240,-0.02910,31.107,0.03640
48.300,-0.5935,-1.4143,-0.04455,31.038,0.03567
48.320,-0.5997,-0.0881,-0.04572,31.009,0.03495
48.340,-0.3385,0.1517,-0.07633,30.909,0.03423
48.360,1.5216,-0.4878,-0.00625,30.883,0.03352
48.380,2.8923,0.5214,-0.03248,31.132,0.03282
48.400,3.8079,0.3645,-0.02474,31.245,0.03213
48.420,1.8960,0.0111,-0.03145,31.493,0.03145
48.440,1.3464,-0.3071,-0.02849,31.654,0.03077
48.460,-1.1971,0.0323,-0.01129,31.696,0.03010
48.480,-3.1138,-0.3602,-0.01073,31.478,0.02943
48.500,-1.5584,-0.0499,-0.06214,31.237,0.02877
48.520,-0.7411,-0.4591,-0.01523,31.233,0.02813
48.540,-0.3627,-0.4139,-0.01894,31.160,0.02748
48.560,-0.7193,-0.3075,-0.04579,30.992,0.02685
48.580,2.1887,0.1702,-0.03751,31.065,0.02622
48.600,1.4128,-0.4085,-0.02688,31.286,0.02560
48.620,0.2923,-0.6484,-0.01112,31.273,0.02499
48.640,-0.3075,0.2077,-0.02222,31.289,0.02438
48.660,-1.3632,-0.6210,0.01981,31.190,0.02378
48.680,2.2285,0.4363,-0.04132,31.067,0.02319
48.700,0.8960,-0.3308,-0.01637,31.422,0.02261
48.720,-1.3122,-0.5729,-0.01122,31.196,0.02203
48.740,-1.2939,-0.6117,-0.00943,31.167,0.02147
48.760,-0.2334,-0.1547,0.00373,31.086,0.02090
48.780,1.4413,-0.2603,-0.05394,31.066,0.02035
48.800,2.8352,-0.4871,0.02305,31.255,0.01980
48.820,1.1775,0.1703,-0.05106,31.434,0.01927
48.840,1.1528,-0.1558,-0.05260,31.408,0.01873
48.860,-0.4375,-0.1553,-0.01797,31.611,0.01821
48.880,-0.6862,0.0497,-0.02760,31.473,0.01769
48.900,2.6219,0.2794,0.01557,31.537,0.01718
48.920,1.2486,0.2101,-0.04303,31.857,0.01668
48.940,-0.2456,-0.2598,-0.00057,31.753,0.01619
48.960,2.0344,-0.1428,-0.01150,31.790,0.01570
48.980,1.0886,0.4096,-0.00751,32.060,0.01522
49.000,-1.1561,-0.8183,-0.04541,31.908,0.01475
49.020,-0.0762,0.1968,-0.02966,31.920,0.01428
49.040,-1.7024,0.1489,-0.04687,31.863,0.01382
49.060,-0.9021,-0.4837,-0.05073,31.662,0.01337
49.080,-0.9456,-0.8740,-0.01166,31.735,0.01293
49.100,1.5871,-0.0709,-0.00170,31.583,0.01249
49.120,1.9981,-0.3147,-0.02228,31.881,0.01207
49.140,-0.6768,0.0130,-0.04718,31.884,0.01165
49.160,0.3758,-1.0215,-0.02921,31.847,0.01123
49.180,-0.1068,0.1932,0.00745,31.854,0.01083
49.200,-0.4248,0.4562,-0.01193,31.873,0.01043
49.220,-0.0611,-0.5678,-0.00315,31.837,0.01004
49.240,-1.1684,-0.6013,-0.01660,31.847,0.00965
49.260,-1.5569,0.4944,0.00994,31.743,0.00928
49.280,-0.6343,0.1102,-0.00774,31.654,0.00891
49.300,-2.7199,-0.1398,-0.02564,31.748,0.00855
49.320,-3.6234,0.2105,0.01457,31.364,0.00819
49.340,-1.0217,-0.3152,0.00212,31.220,0.00785
49.360,0.9914,-0.4094,0.01310,31.222,0.00751
49.380,0.7126,0.4657,-0.02691,31.283,0.00718
49.400,-0.1576,-0.3163,-0.02420,31.213,0.00685
49.420,-0.0510,0.0629,-0.01159,31.237,0.00654
49.440,-3.1872,-0.4167,-0.02076,31.175,0.00623
49.460,-1.2814,-0.9458,-0.02347,30.840,0.00593
49.480,1.6007,0.2138,0.00025,31.009,0.00563
49.500,-0.4181,0.2475,-0.00606,31.057,0.00535
49.520,0.9419,-0.4947,-0.00892,30.885,0.00507
49.540,2.6735,0.7661,-0.02450,31.150,0.00480
49.560,0.0407,0.5651,0.00509,31.272,0.00453
49.580,0.3241,-0.3789,0.00809,31.160,0.00427
49.600,1.5429,-0.1922,-0.03548,31.359,0.00402
49.620,1.3975,0.1285,-0.01746,31.456,0.00378
49.640,0.3079,0.0335,0.00243,31.605,0.00355
49.660,-1.3091,-0.4450,0.01491,31.497,0.00332
49.680,-1.7613,-0.0421,0.00049,31.397,0.00310
49.700,-1.5386,-0.0022,0.05288,31.248,0.00289
49.720,-2.7942,-1.0844,-0.03284,31.151,0.00269
49.740,-1.4002,-0.1109,-0.01113,30.735,0.00249
49.760,-0.1933,-0.0367,-0.03079,30.930,0.00230
49.780,-0.7578,-0.4845,-0.01653,30.717,0.00212
49.800,-1.6667,-0.2015,-0.04183,30.820,0.00194
49.820,-1.2039,0.2173,-0.01799,30.586,0.00178
49.840,-1.2025,-0.4045,-0.02024,30.607,0.00162
49.860,-1.3675,-0.8127,0.01986,30.393,0.00147
49.880,-2.3303,-0.7149,-0.02029,30.389,0.00132
49.900,-3.0126,-0.1562,0.01148,30.101,0.00118
49.920,-0.4297,0.4428,-0.00227,29.995,0.00105
49.940,1.1587,0.5390,-0.00854,30.113,0.00093
49.960,1.6680,-0.6795,-0.03870,30.152,0.00082
49.980,-0.6309,-0.3512,-0.02132,30.183,0.00071
50.000,-2.9522,-0.1411,0.01208,30.028,0.00061
50.020,-4.1337,0.1514,0.03531,29.633,0.00052
50.040,-1.6449,-0.2880,0.01746,29.472,0.00043
50.060,1.6702,0.1084,0.04280,29.380,0.00036
50.080,3.0938,-0.5210,0.02854,29.646,0.00029
50.100,0.4521,-0.6206,-0.00709,29.749,0.00023
50.120,-0.4745,-0.4335,0.02915,29.806,0.00017
50.140,-1.1971,0.0319,0.04308,29.701,0.00012
50.160,0.5975,0.0310,0.01784,29.570,0.00008
50.180,0.1101,-0.3037,-0.01324,29.685,0.00005
50.200,-1.1579,-0.3600,0.01406,29.618,0.00003
50.220,1.4520,0.1944,0.03754,29.557,0.00001
50.240,1.1555,-0.2928,-0.00410,29.903,0.00000
50.260,-1.8280,-0.3321,0.01837,29.726,-0.00000
50.280,0.0666,0.3432,0.02792,29.675,0.00000
50.300,-0.5128,-0.2029,0.02492,29.630,0.00002
50.320,-2.4529,-0.7228,0.01055,29.513,0.00004
50.340,0.4132,0.1693,0.01418,29.259,0.00007
50.360,0.1749,0.5303,0.02426,29.488,0.00010
50.380,-2.8294,-0.0846,0.01458,29.234,0.00014
50.400,-0.4725,0.2085,-0.00853,29.070,0.00019
50.420,-0.8888,0.1014,0.02727,29.116,0.00025
50.440,-1.6894,0.6901,-0.03578,28.893,0.00032
50.460,-0.7169,-0.7194,-0.00665,28.865,0.00039
50.480,-0.6559,-0.1849,0.04326,28.818,0.00047
50.500,-0.3354,0.2997,-0.00964,28.776,0.00056
50.520,-1.3481,0.1051,-0.00810,28.751,0.00065
50.540,-2.6486,0.3622,0.00602,28.497,0.00076
50.560,0.9053,-0.0056,0.00502,28.398,0.00087
50.580,3.5893,0.2015,0.04466,28.629,0.00099
50.600,0.5785,0.1917,0.00207,28.839,0.00111
50.620,1.0581,0.3247,0.00881,28.734,0.00124
50.640,-0.1801,0.2683,0.01891,28.930,0.00138
50.660,-2.9685,0.1403,0.05027,28.760,0.00153
50.680,-4.2730,0.2499,0.03691,28.515,0.00169
50.700,-3.2865,0.4549,0.03348,28.152,0.00185
50.720,-0.7309,-0.0844,0.00131,27.951,0.00202
50.740,-0.2831,-0.3014,-0.00056,28.034,0.00220
50.760,1.2189,0.5473,-0.00855,27.976,0.00238
50.780,3.9632,-0.2857,0.02949,28.275,0.00258
50.800,0.8722,0.2574,0.00242,28.426,0.00278
50.820,-0.8535,0.9451,0.01148,28.362,0.00299
50.840,-0.1634,0.2516,0.02187,28.322,0.00320
50.860,0.7573,0.2920,0.05437,28.283,0.00342
50.880,0.9713,0.9765,0.05097,28.463,0.00365
50.900,-0.7021,-0.1269,0.02119,28.394,0.00389
50.920,-0.8360,0.1530,0.03806,28.391,0.00414
50.940,0.2791,0.5024,-0.01786,28.259,0.00439
50.960,1.3910,0.3746,0.02824,28.492,0.00465
50.980,-0.7748,0.1967,-0.00123,28.430,0.00492
51.000,-2.7316,-0.8054,0.00486,28.313,0.00519
51.020,-1.3850,1.6663,-0.00526,28.040,0.00547
51.040,0.2133,0.2597,0.03416,28.213,0.00576
51.060,-0.8812,0.2048,0.05255,28.107,0.00606
51.080,-0.4725,-0.0606,0.04397,28.094,0.00637
51.100,-0.3631,0.2504,-0.00601,28.020,0.00668
51.120,-2.6347,-0.1273,0.00772,27.987,0.00700
51.140,-3.6087,0.9104,0.02620,27.630,0.00733
51.160,-0.0708,-2.5119,0.02448,27.489,0.00766
51.180,1.3623,-0.1064,0.02431,27.294,0.00800
51.200,3.9911,-0.1749,0.01803,27.686,0.00835
51.220,2.6012,0.3163,0.00545,27.928,0.00871
51.240,2.9908,0.4079,0.04639,28.007,0.00907
51.260,4.8455,0.3397,0.00619,28.455,0.00945
51.280,-0.1350,0.4687,0.04743,28.685,0.00983
51.300,-3.3551,-0.9331,0.03127,28.443,0.01021
51.320,-1.2346,0.1817,0.02695,28.211,0.01061
51.340,0.5504,0.5958,0.04530,28.259,0.01101
51.360,0.3496,0.6308,0.05716,28.247,0.01142
51.380,-1.2558,0.2241,0.04101,28.285,0.01183
51.400,1.7447,-0.1038,0.01170,28.137,0.01226
51.420,1.5052,-0.0762,0.02610,28.469,0.01269
51.440,0.9146,0.7306,0.02490,28.406,0.01313
51.460,3.5027,0.0520,0.01610,28.607,0.01358
51.480,1.0916,0.0034,0.02886,28.870,0.01403
51.500,-0.3300,-0.8906,0.02431,28.765,0.01449
51.520,2.4625,-0.3270,0.04599,28.868,0.01496
51.540,3.6678,-0.0131,0.00937,29.155,0.01543
51.560,3.3920,0.0811,0.00202,29.418,0.01592
51.580,1.0007,0.2713,0.03465,29.553,0.01641
51.600,1.1143,0.3192,0.03773,29.632,0.01691
51.620,1.1976,0.5195,0.05482,29.646,0.01741
51.640,2.1492,0.3464,0.02204,29.875,0.01793
51.660,1.1255,0.1766,0.05605,29.980,0.01845
51.680,-0.7038,0.1686,0.04034,30.002,0.01897
51.700,-2.2740,0.6250,0.03938,29.917,0.01951
51.720,-4.8599,0.8554,0.02157,29.673,0.02005
51.740,1.7752,-0.4341,0.01431,29.642,0.02060
51.760,2.4282,0.2062,0.04451,29.978,0.02116
51.780,-1.4305,0.3285,0.01525,29.891,0.02172
